ExperimentName	Subject	Session	Clock.Information	DataFile.Basename	DemoAge.RESP	DemoAge.RT	DemoEthnicity.RESP	DemoEthnicity.RT	DemoGender.RESP	DemoGender.RT	DemoRace.RESP	DemoRace.RT	Display.RefreshRate	ExperimentVersion	Group	RandomSeed	responseMappingTool	responseMappingVal	RuntimeCapabilities	RuntimeVersion	RuntimeVersionExpected	SessionDate	SessionStartDateTimeUtc	SessionTime	StudioVersion	Block	negResponse	posResponse	Procedure[Block]	Running[Block]	TaskList	TaskList.Cycle	TaskList.Sample	toolResponse	weaponResponse	Trial	APBlockList	APBlockList.Cycle	APBlockList.Sample	blockName	oneSecondReadyBreak.DurationError	oneSecondReadyBreak.OnsetDelay	oneSecondReadyBreak.OnsetTime	oneSecondReadyBreak.OnsetToOnsetTime	Practice[Trial]	Procedure[Trial]	Running[Trial]	WITBlockList	WITBlockList.Cycle	WITBlockList.Sample	SubTrial	anxQSlide.RESP	anxQSlide.RT	anxQtext	anxTestList	blackFaceList	blackNegPrac	blackPosPrac	blackToolPrac	blackWeaponPrac	BlankITI.DurationError	BlankITI.OnsetDelay	BlankITI.OnsetTime	BlankITI.OnsetToOnsetTime	correctRespData	CorrectResponse	errorQSlide.RESP	errorQSlide.RT	errorRespData	errQList	errQList.Cycle	errQList.Sample	errQText	errQTextList	facePictureFile	FixationMask.DurationError	FixationMask.OnsetDelay	FixationMask.OnsetTime	FixationMask.OnsetToOnsetTime	ITIDuration	ITIJitter	negList	noRespData	posList	postStimulusMaskFile	postTargetMask.DurationError	postTargetMask.OnsetDelay	postTargetMask.OnsetTime	postTargetMask.OnsetToOnsetTime	Practice[SubTrial]	PracticeListAP	PracticeListAP.Cycle	PracticeListAP.Sample	PracticeListWIT	PracticeListWIT.Cycle	PracticeListWIT.Sample	Prime.DurationError	Prime.OnsetDelay	Prime.OnsetTime	Prime.OnsetToOnsetTime	PrimeType	Procedure[SubTrial]	responseAccData	rtFeedback.DurationError	rtFeedback.OnsetDelay	rtFeedback.OnsetTime	rtFeedback.OnsetToOnsetTime	rtFeedbackText	Running[SubTrial]	TargetAP.ACC	TargetAP.CRESP	TargetAP.DurationError	TargetAP.OnsetDelay	TargetAP.OnsetTime	TargetAP.OnsetToOnsetTime	TargetAP.RESP	TargetAP.RT	TargetAP.RTTime	targetPictureFile	TargetType	TargetWIT.ACC	TargetWIT.CRESP	TargetWIT.DurationError	TargetWIT.OnsetDelay	TargetWIT.OnsetTime	TargetWIT.OnsetToOnsetTime	TargetWIT.RESP	TargetWIT.RT	TargetWIT.RTTime	targetWord	toolList	TrialListAP	TrialListAP.Cycle	TrialListAP.Sample	TrialListWIT	TrialListWIT.Cycle	TrialListWIT.Sample	weaponList	whiteFaceList	whiteNegPrac	whitePosPrac	whiteToolPrac	whiteWeaponPracObs_Study2_gamecontroller	72	1	"<?xml version=""1.0""?>\n<Clock xmlns:dt=""urn:schemas-microsoft-com:datatypes""><Description dt:dt=""string"">E-Prime Primary Realtime Clock</Description><StartTime><Timestamp dt:dt=""int"">0</Timestamp><DateUtc dt:dt=""string"">2016-10-17T16:47:24Z</DateUtc></StartTime><FrequencyChanges><FrequencyChange><Frequency dt:dt=""r8"">3215429</Frequency><Timestamp dt:dt=""r8"">5032453178924</Timestamp><Current dt:dt=""r8"">0</Current><DateUtc dt:dt=""string"">2016-10-17T16:47:24Z</DateUtc></FrequencyChange></FrequencyChanges></Clock>\n"	Obs_Study2_gamecontroller-1-1	6	4031	2	17933	2	6998	5	6594	60.002	1.1.0.222	1	-1247883393	toolLeft	posLeft	Professional	2.0.10.356	2.0.10.356	10/17/16	10/17/16 16:47	11:47:25	2.0.10.252	1			WITproc	TaskList	1	2	1	5	6	1				practiceWIT	0	10	648484	1000	yes	practiceBlockWIT	WITBlockList	1	1	1	1								14		0	0	651701	0	2	5			1						blackFace7.bmp	1	0	649484	1000	1200	3		3		mask.bmp	0	0	650884	317	yes				1	2	1	0	0	650484	200	black	TrialProcWIT	3	0	17	651201	500	TOO SLOW	PracticeListWIT										tool2.bmp	tool	0	5	0	0	650684	200		0	0														Obs_Study2_gamecontroller	72	1	"<?xml version=""1.0""?>\n<Clock xmlns:dt=""urn:schemas-microsoft-com:datatypes""><Description dt:dt=""string"">E-Prime Primary Realtime Clock</Description><StartTime><Timestamp dt:dt=""int"">0</Timestamp><DateUtc dt:dt=""string"">2016-10-17T16:47:24Z</DateUtc></StartTime><FrequencyChanges><FrequencyChange><Frequency dt:dt=""r8"">3215429</Frequency><Timestamp dt:dt=""r8"">5032453178924</Timestamp><Current dt:dt=""r8"">0</Current><DateUtc dt:dt=""string"">2016-10-17T16:47:24Z</DateUtc></FrequencyChange></FrequencyChanges></Clock>\n"	Obs_Study2_gamecontroller-1-1	6	4031	2	17933	2	6998	5	6594	60.002	1.1.0.222	1	-1247883393	toolLeft	posLeft	Professional	2.0.10.356	2.0.10.356	10/17/16	10/17/16 16:47	11:47:25	2.0.10.252	1			WITproc	TaskList	1	2	1	5	6	1				practiceWIT	0	10	648484	1000	yes	practiceBlockWIT	WITBlockList	1	1	1	2									14	0	0	655134	0	2	6			1						blackFace7.bmp	1	16	652917	1000	800	1		3		mask.bmp	0	0	654317	317	yes				2	2	2	1	0	653917	200	black	TrialProcWIT	3	0	17	654634	500	TOO SLOW	PracticeListWIT										weapon2.bmp	weapon	0	6	0	0	654117	200		0	0														Obs_Study2_gamecontroller	72	1	"<?xml version=""1.0""?>\n<Clock xmlns:dt=""urn:schemas-microsoft-com:datatypes""><Description dt:dt=""string"">E-Prime Primary Realtime Clock</Description><StartTime><Timestamp dt:dt=""int"">0</Timestamp><DateUtc dt:dt=""string"">2016-10-17T16:47:24Z</DateUtc></StartTime><FrequencyChanges><FrequencyChange><Frequency dt:dt=""r8"">3215429</Frequency><Timestamp dt:dt=""r8"">5032453178924</Timestamp><Current dt:dt=""r8"">0</Current><DateUtc dt:dt=""string"">2016-10-17T16:47:24Z</DateUtc></FrequencyChange></FrequencyChanges></Clock>\n"	Obs_Study2_gamecontroller-1-1	6	4031	2	17933	2	6998	5	6594	60.002	1.1.0.222	1	-1247883393	toolLeft	posLeft	Professional	2.0.10.356	2.0.10.356	10/17/16	10/17/16 16:47	11:47:25	2.0.10.252	1			WITproc	TaskList	1	2	1	5	6	1				practiceWIT	0	10	648484	1000	yes	practiceBlockWIT	WITBlockList	1	1	1	3										0	0	658167	0	2	6			1						whiteFace5.bmp	1	16	655950	1000	1000	2		3		mask.bmp	1	0	657350	317	yes				4	2	3	1	0	656950	200	white	TrialProcWIT	3	0	17	657667	500	TOO SLOW	PracticeListWIT										weapon2.bmp	weapon	0	6	0	0	657150	200		0	0														10Obs_Study2_gamecontroller	72	1	"<?xml version=""1.0""?>\n<Clock xmlns:dt=""urn:schemas-microsoft-com:datatypes""><Description dt:dt=""string"">E-Prime Primary Realtime Clock</Description><StartTime><Timestamp dt:dt=""int"">0</Timestamp><DateUtc dt:dt=""string"">2016-10-17T16:47:24Z</DateUtc></StartTime><FrequencyChanges><FrequencyChange><Frequency dt:dt=""r8"">3215429</Frequency><Timestamp dt:dt=""r8"">5032453178924</Timestamp><Current dt:dt=""r8"">0</Current><DateUtc dt:dt=""string"">2016-10-17T16:47:24Z</DateUtc></FrequencyChange></FrequencyChanges></Clock>\n"	Obs_Study2_gamecontroller-1-1	6	4031	2	17933	2	6998	5	6594	60.002	1.1.0.222	1	-1247883393	toolLeft	posLeft	Professional	2.0.10.356	2.0.10.356	10/17/16	10/17/16 16:47	11:47:25	2.0.10.252	1			WITproc	TaskList	1	2	1	5	6	1				practiceWIT	0	10	648484	1000	yes	practiceBlockWIT	WITBlockList	1	1	1	4										0	0	661400	0	2	5			1						whiteFace6.bmp	0	17	659184	1000	1200	3		3		mask.bmp	0	0	660584	316	yes				3	2	4	0	0	660184	200	white	TrialProcWIT	3	0	16	660900	500	TOO SLOW	PracticeListWIT										tool4.bmp	tool	0	5	0	0	660384	200		0	0													12	Obs_Study2_gamecontroller	72	1	"<?xml version=""1.0""?>\n<Clock xmlns:dt=""urn:schemas-microsoft-com:datatypes""><Description dt:dt=""string"">E-Prime Primary Realtime Clock</Description><StartTime><Timestamp dt:dt=""int"">0</Timestamp><DateUtc dt:dt=""string"">2016-10-17T16:47:24Z</DateUtc></StartTime><FrequencyChanges><FrequencyChange><Frequency dt:dt=""r8"">3215429</Frequency><Timestamp dt:dt=""r8"">5032453178924</Timestamp><Current dt:dt=""r8"">0</Current><DateUtc dt:dt=""string"">2016-10-17T16:47:24Z</DateUtc></FrequencyChange></FrequencyChanges></Clock>\n"	Obs_Study2_gamecontroller-1-1	6	4031	2	17933	2	6998	5	6594	60.002	1.1.0.222	1	-1247883393	toolLeft	posLeft	Professional	2.0.10.356	2.0.10.356	10/17/16	10/17/16 16:47	11:47:25	2.0.10.252	1			WITproc	TaskList	1	2	1	5	6	1				practiceWIT	0	10	648484	1000	yes	practiceBlockWIT	WITBlockList	1	1	1	5										0	0	664834	0	2	5			1						whiteFace5.bmp	0	17	662617	1000	1000	2		3		mask.bmp	0	0	664017	317	yes				3	2	5	0	0	663617	200	white	TrialProcWIT	3	0	17	664334	500	TOO SLOW	PracticeListWIT										tool2.bmp	tool	0	5	0	0	663817	200		0	0													10	Obs_Study2_gamecontroller	72	1	"<?xml version=""1.0""?>\n<Clock xmlns:dt=""urn:schemas-microsoft-com:datatypes""><Description dt:dt=""string"">E-Prime Primary Realtime Clock</Description><StartTime><Timestamp dt:dt=""int"">0</Timestamp><DateUtc dt:dt=""string"">2016-10-17T16:47:24Z</DateUtc></StartTime><FrequencyChanges><FrequencyChange><Frequency dt:dt=""r8"">3215429</Frequency><Timestamp dt:dt=""r8"">5032453178924</Timestamp><Current dt:dt=""r8"">0</Current><DateUtc dt:dt=""string"">2016-10-17T16:47:24Z</DateUtc></FrequencyChange></FrequencyChanges></Clock>\n"	Obs_Study2_gamecontroller-1-1	6	4031	2	17933	2	6998	5	6594	60.002	1.1.0.222	1	-1247883393	toolLeft	posLeft	Professional	2.0.10.356	2.0.10.356	10/17/16	10/17/16 16:47	11:47:25	2.0.10.252	1			WITproc	TaskList	1	2	1	5	6	1				practiceWIT	0	10	648484	1000	yes	practiceBlockWIT	WITBlockList	1	1	1	6									9	0	0	668067	0	2	6			1						blackFace5.bmp	0	16	665850	1000	800	1		3		mask.bmp	0	0	667250	317	yes				2	2	6	1	0	666850	200	black	TrialProcWIT	3	0	17	667567	500	TOO SLOW	PracticeListWIT										weapon1.bmp	weapon	0	6	0	0	667050	200		0	0														Obs_Study2_gamecontroller	72	1	"<?xml version=""1.0""?>\n<Clock xmlns:dt=""urn:schemas-microsoft-com:datatypes""><Description dt:dt=""string"">E-Prime Primary Realtime Clock</Description><StartTime><Timestamp dt:dt=""int"">0</Timestamp><DateUtc dt:dt=""string"">2016-10-17T16:47:24Z</DateUtc></StartTime><FrequencyChanges><FrequencyChange><Frequency dt:dt=""r8"">3215429</Frequency><Timestamp dt:dt=""r8"">5032453178924</Timestamp><Current dt:dt=""r8"">0</Current><DateUtc dt:dt=""string"">2016-10-17T16:47:24Z</DateUtc></FrequencyChange></FrequencyChanges></Clock>\n"	Obs_Study2_gamecontroller-1-1	6	4031	2	17933	2	6998	5	6594	60.002	1.1.0.222	1	-1247883393	toolLeft	posLeft	Professional	2.0.10.356	2.0.10.356	10/17/16	10/17/16 16:47	11:47:25	2.0.10.252	1			WITproc	TaskList	1	2	1	5	6	1				practiceWIT	0	10	648484	1000	yes	practiceBlockWIT	WITBlockList	1	1	1	7										0	0	671100	0	2	5			1						whiteFace1.bmp	1	16	668883	1000	1000	2		3		mask.bmp	1	0	670283	317	yes				3	2	7	1	0	669883	200	white	TrialProcWIT	3	0	17	670600	500	TOO SLOW	PracticeListWIT										tool1.bmp	tool	0	5	0	0	670083	200		0	0													1	Obs_Study2_gamecontroller	72	1	"<?xml version=""1.0""?>\n<Clock xmlns:dt=""urn:schemas-microsoft-com:datatypes""><Description dt:dt=""string"">E-Prime Primary Realtime Clock</Description><StartTime><Timestamp dt:dt=""int"">0</Timestamp><DateUtc dt:dt=""string"">2016-10-17T16:47:24Z</DateUtc></StartTime><FrequencyChanges><FrequencyChange><Frequency dt:dt=""r8"">3215429</Frequency><Timestamp dt:dt=""r8"">5032453178924</Timestamp><Current dt:dt=""r8"">0</Current><DateUtc dt:dt=""string"">2016-10-17T16:47:24Z</DateUtc></FrequencyChange></FrequencyChanges></Clock>\n"	Obs_Study2_gamecontroller-1-1	6	4031	2	17933	2	6998	5	6594	60.002	1.1.0.222	1	-1247883393	toolLeft	posLeft	Professional	2.0.10.356	2.0.10.356	10/17/16	10/17/16 16:47	11:47:25	2.0.10.252	1			WITproc	TaskList	1	2	1	5	6	1				practiceWIT	0	10	648484	1000	yes	practiceBlockWIT	WITBlockList	1	1	1	8										0	0	674333	0	2	6			1						whiteFace4.bmp	0	17	672117	1000	1200	3		3		mask.bmp	0	0	673517	316	yes				4	2	8	0	0	673117	200	white	TrialProcWIT	3	0	16	673833	500	TOO SLOW	PracticeListWIT										weapon4.bmp	weapon	0	6	0	0	673317	200		0	0														8Obs_Study2_gamecontroller	72	1	"<?xml version=""1.0""?>\n<Clock xmlns:dt=""urn:schemas-microsoft-com:datatypes""><Description dt:dt=""string"">E-Prime Primary Realtime Clock</Description><StartTime><Timestamp dt:dt=""int"">0</Timestamp><DateUtc dt:dt=""string"">2016-10-17T16:47:24Z</DateUtc></StartTime><FrequencyChanges><FrequencyChange><Frequency dt:dt=""r8"">3215429</Frequency><Timestamp dt:dt=""r8"">5032453178924</Timestamp><Current dt:dt=""r8"">0</Current><DateUtc dt:dt=""string"">2016-10-17T16:47:24Z</DateUtc></FrequencyChange></FrequencyChanges></Clock>\n"	Obs_Study2_gamecontroller-1-1	6	4031	2	17933	2	6998	5	6594	60.002	1.1.0.222	1	-1247883393	toolLeft	posLeft	Professional	2.0.10.356	2.0.10.356	10/17/16	10/17/16 16:47	11:47:25	2.0.10.252	1			WITproc	TaskList	1	2	1	5	6	1				practiceWIT	0	10	648484	1000	yes	practiceBlockWIT	WITBlockList	1	1	1	9									16	0	0	677750	0	2	6			1						blackFace8.bmp	0	17	675550	1000	800	1		3		mask.bmp	0	0	676950	300	yes				2	2	9	0	0	676550	200	black	TrialProcWIT	1	0	0	677250	500	+	PracticeListWIT										weapon4.bmp	weapon	0	6	0	0	676750	200	5	411	677161														Obs_Study2_gamecontroller	72	1	"<?xml version=""1.0""?>\n<Clock xmlns:dt=""urn:schemas-microsoft-com:datatypes""><Description dt:dt=""string"">E-Prime Primary Realtime Clock</Description><StartTime><Timestamp dt:dt=""int"">0</Timestamp><DateUtc dt:dt=""string"">2016-10-17T16:47:24Z</DateUtc></StartTime><FrequencyChanges><FrequencyChange><Frequency dt:dt=""r8"">3215429</Frequency><Timestamp dt:dt=""r8"">5032453178924</Timestamp><Current dt:dt=""r8"">0</Current><DateUtc dt:dt=""string"">2016-10-17T16:47:24Z</DateUtc></FrequencyChange></FrequencyChanges></Clock>\n"	Obs_Study2_gamecontroller-1-1	6	4031	2	17933	2	6998	5	6594	60.002	1.1.0.222	1	-1247883393	toolLeft	posLeft	Professional	2.0.10.356	2.0.10.356	10/17/16	10/17/16 16:47	11:47:25	2.0.10.252	1			WITproc	TaskList	1	2	1	5	6	1				practiceWIT	0	10	648484	1000	yes	practiceBlockWIT	WITBlockList	1	1	1	10								6		0	-1	680766	0	2	5			1						blackFace3.bmp	1	16	678566	1000	1000	2		3		mask.bmp	1	0	679966	301	yes				1	2	10	1	0	679566	200	black	TrialProcWIT	3	0	1	680267	499	TOO SLOW	PracticeListWIT										tool2.bmp	tool	0	5	0	0	679766	200		0	0														Obs_Study2_gamecontroller	72	1	"<?xml version=""1.0""?>\n<Clock xmlns:dt=""urn:schemas-microsoft-com:datatypes""><Description dt:dt=""string"">E-Prime Primary Realtime Clock</Description><StartTime><Timestamp dt:dt=""int"">0</Timestamp><DateUtc dt:dt=""string"">2016-10-17T16:47:24Z</DateUtc></StartTime><FrequencyChanges><FrequencyChange><Frequency dt:dt=""r8"">3215429</Frequency><Timestamp dt:dt=""r8"">5032453178924</Timestamp><Current dt:dt=""r8"">0</Current><DateUtc dt:dt=""string"">2016-10-17T16:47:24Z</DateUtc></FrequencyChange></FrequencyChanges></Clock>\n"	Obs_Study2_gamecontroller-1-1	6	4031	2	17933	2	6998	5	6594	60.002	1.1.0.222	1	-1247883393	toolLeft	posLeft	Professional	2.0.10.356	2.0.10.356	10/17/16	10/17/16 16:47	11:47:25	2.0.10.252	1			WITproc	TaskList	1	2	1	5	6	1				practiceWIT	0	10	648484	1000	yes	practiceBlockWIT	WITBlockList	1	1	1	11										0	0	684000	0	2	5			1						whiteFace8.bmp	0	17	681783	1000	800	1		3		mask.bmp	0	0	683183	317	yes				3	2	11	0	0	682783	200	white	TrialProcWIT	3	0	17	683500	500	TOO SLOW	PracticeListWIT										tool4.bmp	tool	0	5	0	0	682983	200		0	0													16	Obs_Study2_gamecontroller	72	1	"<?xml version=""1.0""?>\n<Clock xmlns:dt=""urn:schemas-microsoft-com:datatypes""><Description dt:dt=""string"">E-Prime Primary Realtime Clock</Description><StartTime><Timestamp dt:dt=""int"">0</Timestamp><DateUtc dt:dt=""string"">2016-10-17T16:47:24Z</DateUtc></StartTime><FrequencyChanges><FrequencyChange><Frequency dt:dt=""r8"">3215429</Frequency><Timestamp dt:dt=""r8"">5032453178924</Timestamp><Current dt:dt=""r8"">0</Current><DateUtc dt:dt=""string"">2016-10-17T16:47:24Z</DateUtc></FrequencyChange></FrequencyChanges></Clock>\n"	Obs_Study2_gamecontroller-1-1	6	4031	2	17933	2	6998	5	6594	60.002	1.1.0.222	1	-1247883393	toolLeft	posLeft	Professional	2.0.10.356	2.0.10.356	10/17/16	10/17/16 16:47	11:47:25	2.0.10.252	1			WITproc	TaskList	1	2	1	5	6	1				practiceWIT	0	10	648484	1000	yes	practiceBlockWIT	WITBlockList	1	1	1	12										0	0	687033	0	2	6			1						whiteFace1.bmp	1	16	684816	1000	1200	3		3		mask.bmp	0	0	686216	317	yes				4	2	12	1	0	685816	200	white	TrialProcWIT	3	0	17	686533	500	TOO SLOW	PracticeListWIT										weapon2.bmp	weapon	0	6	0	0	686016	200		0	0														2Obs_Study2_gamecontroller	72	1	"<?xml version=""1.0""?>\n<Clock xmlns:dt=""urn:schemas-microsoft-com:datatypes""><Description dt:dt=""string"">E-Prime Primary Realtime Clock</Description><StartTime><Timestamp dt:dt=""int"">0</Timestamp><DateUtc dt:dt=""string"">2016-10-17T16:47:24Z</DateUtc></StartTime><FrequencyChanges><FrequencyChange><Frequency dt:dt=""r8"">3215429</Frequency><Timestamp dt:dt=""r8"">5032453178924</Timestamp><Current dt:dt=""r8"">0</Current><DateUtc dt:dt=""string"">2016-10-17T16:47:24Z</DateUtc></FrequencyChange></FrequencyChanges></Clock>\n"	Obs_Study2_gamecontroller-1-1	6	4031	2	17933	2	6998	5	6594	60.002	1.1.0.222	1	-1247883393	toolLeft	posLeft	Professional	2.0.10.356	2.0.10.356	10/17/16	10/17/16 16:47	11:47:25	2.0.10.252	1			WITproc	TaskList	1	2	1	5	6	1				practiceWIT	0	10	648484	1000	yes	practiceBlockWIT	WITBlockList	1	1	1	13									7	0	0	690466	0	2	6			1						blackFace4.bmp	1	16	688249	1000	1200	3		3		mask.bmp	1	0	689649	317	yes				2	2	13	1	0	689249	200	black	TrialProcWIT	3	0	17	689966	500	TOO SLOW	PracticeListWIT										weapon3.bmp	weapon	0	6	0	0	689449	200		0	0														Obs_Study2_gamecontroller	72	1	"<?xml version=""1.0""?>\n<Clock xmlns:dt=""urn:schemas-microsoft-com:datatypes""><Description dt:dt=""string"">E-Prime Primary Realtime Clock</Description><StartTime><Timestamp dt:dt=""int"">0</Timestamp><DateUtc dt:dt=""string"">2016-10-17T16:47:24Z</DateUtc></StartTime><FrequencyChanges><FrequencyChange><Frequency dt:dt=""r8"">3215429</Frequency><Timestamp dt:dt=""r8"">5032453178924</Timestamp><Current dt:dt=""r8"">0</Current><DateUtc dt:dt=""string"">2016-10-17T16:47:24Z</DateUtc></FrequencyChange></FrequencyChanges></Clock>\n"	Obs_Study2_gamecontroller-1-1	6	4031	2	17933	2	6998	5	6594	60.002	1.1.0.222	1	-1247883393	toolLeft	posLeft	Professional	2.0.10.356	2.0.10.356	10/17/16	10/17/16 16:47	11:47:25	2.0.10.252	1			WITproc	TaskList	1	2	1	5	6	1				practiceWIT	0	10	648484	1000	yes	practiceBlockWIT	WITBlockList	1	1	1	14										0	0	693899	0	2	6			1						whiteFace6.bmp	0	17	691683	1000	800	1		3		mask.bmp	0	0	693083	316	yes				4	2	14	0	0	692683	200	white	TrialProcWIT	3	0	16	693399	500	TOO SLOW	PracticeListWIT										weapon4.bmp	weapon	0	6	0	0	692883	200		0	0														12Obs_Study2_gamecontroller	72	1	"<?xml version=""1.0""?>\n<Clock xmlns:dt=""urn:schemas-microsoft-com:datatypes""><Description dt:dt=""string"">E-Prime Primary Realtime Clock</Description><StartTime><Timestamp dt:dt=""int"">0</Timestamp><DateUtc dt:dt=""string"">2016-10-17T16:47:24Z</DateUtc></StartTime><FrequencyChanges><FrequencyChange><Frequency dt:dt=""r8"">3215429</Frequency><Timestamp dt:dt=""r8"">5032453178924</Timestamp><Current dt:dt=""r8"">0</Current><DateUtc dt:dt=""string"">2016-10-17T16:47:24Z</DateUtc></FrequencyChange></FrequencyChanges></Clock>\n"	Obs_Study2_gamecontroller-1-1	6	4031	2	17933	2	6998	5	6594	60.002	1.1.0.222	1	-1247883393	toolLeft	posLeft	Professional	2.0.10.356	2.0.10.356	10/17/16	10/17/16 16:47	11:47:25	2.0.10.252	1			WITproc	TaskList	1	2	1	5	6	1				practiceWIT	0	10	648484	1000	yes	practiceBlockWIT	WITBlockList	1	1	1	15								13		0	0	696933	0	2	5			1						blackFace7.bmp	0	17	694716	1000	1000	2		3		mask.bmp	0	0	696116	317	yes				1	2	15	0	0	695716	200	black	TrialProcWIT	3	0	17	696433	500	TOO SLOW	PracticeListWIT										tool1.bmp	tool	0	5	0	0	695916	200		0	0														Obs_Study2_gamecontroller	72	1	"<?xml version=""1.0""?>\n<Clock xmlns:dt=""urn:schemas-microsoft-com:datatypes""><Description dt:dt=""string"">E-Prime Primary Realtime Clock</Description><StartTime><Timestamp dt:dt=""int"">0</Timestamp><DateUtc dt:dt=""string"">2016-10-17T16:47:24Z</DateUtc></StartTime><FrequencyChanges><FrequencyChange><Frequency dt:dt=""r8"">3215429</Frequency><Timestamp dt:dt=""r8"">5032453178924</Timestamp><Current dt:dt=""r8"">0</Current><DateUtc dt:dt=""string"">2016-10-17T16:47:24Z</DateUtc></FrequencyChange></FrequencyChanges></Clock>\n"	Obs_Study2_gamecontroller-1-1	6	4031	2	17933	2	6998	5	6594	60.002	1.1.0.222	1	-1247883393	toolLeft	posLeft	Professional	2.0.10.356	2.0.10.356	10/17/16	10/17/16 16:47	11:47:25	2.0.10.252	1			WITproc	TaskList	1	2	1	5	6	1				practiceWIT	0	10	648484	1000	yes	practiceBlockWIT	WITBlockList	1	1	1	16								8		0	-1	700149	0	2	5			1						blackFace4.bmp	1	16	697949	1000	800	1		3		mask.bmp	0	0	699349	301	yes				1	2	16	1	0	698949	200	black	TrialProcWIT	3	0	1	699650	499	TOO SLOW	PracticeListWIT										tool4.bmp	tool	0	5	0	0	699149	200		0	0														Obs_Study2_gamecontroller	72	1	"<?xml version=""1.0""?>\n<Clock xmlns:dt=""urn:schemas-microsoft-com:datatypes""><Description dt:dt=""string"">E-Prime Primary Realtime Clock</Description><StartTime><Timestamp dt:dt=""int"">0</Timestamp><DateUtc dt:dt=""string"">2016-10-17T16:47:24Z</DateUtc></StartTime><FrequencyChanges><FrequencyChange><Frequency dt:dt=""r8"">3215429</Frequency><Timestamp dt:dt=""r8"">5032453178924</Timestamp><Current dt:dt=""r8"">0</Current><DateUtc dt:dt=""string"">2016-10-17T16:47:24Z</DateUtc></FrequencyChange></FrequencyChanges></Clock>\n"	Obs_Study2_gamecontroller-1-1	6	4031	2	17933	2	6998	5	6594	60.002	1.1.0.222	1	-1247883393	toolLeft	posLeft	Professional	2.0.10.356	2.0.10.356	10/17/16	10/17/16 16:47	11:47:25	2.0.10.252	1			WITproc	TaskList	1	2	1	5	6	2				WIT_1	1	0	711015	1000	no	experimentalBlockWIT	WITBlockList	2	1	2	1										0	0	714215	0	2	5			1						whiteFace1.bmp	1	0	712015	1000	1000	2		3		mask.bmp	1	0	713415	300	No							1	0	713015	200	white	TrialProcWIT	2	0	0	713715	500	+	TrialListWIT										tool3.bmp	tool	1	5	0	0	713215	200	5	493	713708		3				3	1	1		1				Obs_Study2_gamecontroller	72	1	"<?xml version=""1.0""?>\n<Clock xmlns:dt=""urn:schemas-microsoft-com:datatypes""><Description dt:dt=""string"">E-Prime Primary Realtime Clock</Description><StartTime><Timestamp dt:dt=""int"">0</Timestamp><DateUtc dt:dt=""string"">2016-10-17T16:47:24Z</DateUtc></StartTime><FrequencyChanges><FrequencyChange><Frequency dt:dt=""r8"">3215429</Frequency><Timestamp dt:dt=""r8"">5032453178924</Timestamp><Current dt:dt=""r8"">0</Current><DateUtc dt:dt=""string"">2016-10-17T16:47:24Z</DateUtc></FrequencyChange></FrequencyChanges></Clock>\n"	Obs_Study2_gamecontroller-1-1	6	4031	2	17933	2	6998	5	6594	60.002	1.1.0.222	1	-1247883393	toolLeft	posLeft	Professional	2.0.10.356	2.0.10.356	10/17/16	10/17/16 16:47	11:47:25	2.0.10.252	1			WITproc	TaskList	1	2	1	5	6	2				WIT_1	1	0	711015	1000	no	experimentalBlockWIT	WITBlockList	2	1	2	2										0	0	717449	0	2	5			1						whiteFace2.bmp	0	17	715232	1000	1200	3		3		mask.bmp	0	0	716632	317	No							0	0	716232	200	white	TrialProcWIT	3	0	17	716949	500	TOO SLOW	TrialListWIT										tool4.bmp	tool	0	5	0	0	716432	200		0	0		4				3	1	2		2				Obs_Study2_gamecontroller	72	1	"<?xml version=""1.0""?>\n<Clock xmlns:dt=""urn:schemas-microsoft-com:datatypes""><Description dt:dt=""string"">E-Prime Primary Realtime Clock</Description><StartTime><Timestamp dt:dt=""int"">0</Timestamp><DateUtc dt:dt=""string"">2016-10-17T16:47:24Z</DateUtc></StartTime><FrequencyChanges><FrequencyChange><Frequency dt:dt=""r8"">3215429</Frequency><Timestamp dt:dt=""r8"">5032453178924</Timestamp><Current dt:dt=""r8"">0</Current><DateUtc dt:dt=""string"">2016-10-17T16:47:24Z</DateUtc></FrequencyChange></FrequencyChanges></Clock>\n"	Obs_Study2_gamecontroller-1-1	6	4031	2	17933	2	6998	5	6594	60.002	1.1.0.222	1	-1247883393	toolLeft	posLeft	Professional	2.0.10.356	2.0.10.356	10/17/16	10/17/16 16:47	11:47:25	2.0.10.252	1			WITproc	TaskList	1	2	1	5	6	2				WIT_1	1	0	711015	1000	no	experimentalBlockWIT	WITBlockList	2	1	2	3										0	0	720865	0	2	5			1						whiteFace3.bmp	1	16	718665	1000	1000	2		3		mask.bmp	0	0	720065	300	No							1	0	719665	200	white	TrialProcWIT	2	0	0	720365	500	+	TrialListWIT										tool1.bmp	tool	1	5	0	0	719865	200	5	483	720348		1				3	1	3		3				Obs_Study2_gamecontroller	72	1	"<?xml version=""1.0""?>\n<Clock xmlns:dt=""urn:schemas-microsoft-com:datatypes""><Description dt:dt=""string"">E-Prime Primary Realtime Clock</Description><StartTime><Timestamp dt:dt=""int"">0</Timestamp><DateUtc dt:dt=""string"">2016-10-17T16:47:24Z</DateUtc></StartTime><FrequencyChanges><FrequencyChange><Frequency dt:dt=""r8"">3215429</Frequency><Timestamp dt:dt=""r8"">5032453178924</Timestamp><Current dt:dt=""r8"">0</Current><DateUtc dt:dt=""string"">2016-10-17T16:47:24Z</DateUtc></FrequencyChange></FrequencyChanges></Clock>\n"	Obs_Study2_gamecontroller-1-1	6	4031	2	17933	2	6998	5	6594	60.002	1.1.0.222	1	-1247883393	toolLeft	posLeft	Professional	2.0.10.356	2.0.10.356	10/17/16	10/17/16 16:47	11:47:25	2.0.10.252	1			WITproc	TaskList	1	2	1	5	6	2				WIT_1	1	0	711015	1000	no	experimentalBlockWIT	WITBlockList	2	1	2	4										0	0	724082	0	2	5			1						whiteFace4.bmp	0	17	721882	1000	1200	3		3		mask.bmp	0	0	723282	300	No							0	0	722882	200	white	TrialProcWIT	2	0	0	723582	500	+	TrialListWIT										tool2.bmp	tool	1	5	0	0	723082	200	5	493	723575		2				3	1	4		4				Obs_Study2_gamecontroller	72	1	"<?xml version=""1.0""?>\n<Clock xmlns:dt=""urn:schemas-microsoft-com:datatypes""><Description dt:dt=""string"">E-Prime Primary Realtime Clock</Description><StartTime><Timestamp dt:dt=""int"">0</Timestamp><DateUtc dt:dt=""string"">2016-10-17T16:47:24Z</DateUtc></StartTime><FrequencyChanges><FrequencyChange><Frequency dt:dt=""r8"">3215429</Frequency><Timestamp dt:dt=""r8"">5032453178924</Timestamp><Current dt:dt=""r8"">0</Current><DateUtc dt:dt=""string"">2016-10-17T16:47:24Z</DateUtc></FrequencyChange></FrequencyChanges></Clock>\n"	Obs_Study2_gamecontroller-1-1	6	4031	2	17933	2	6998	5	6594	60.002	1.1.0.222	1	-1247883393	toolLeft	posLeft	Professional	2.0.10.356	2.0.10.356	10/17/16	10/17/16 16:47	11:47:25	2.0.10.252	1			WITproc	TaskList	1	2	1	5	6	2				WIT_1	1	0	711015	1000	no	experimentalBlockWIT	WITBlockList	2	1	2	5										0	0	727498	0	2	5			1						whiteFace5.bmp	1	16	725298	1000	800	1		3		mask.bmp	1	0	726698	300	No							1	0	726298	200	white	TrialProcWIT	2	0	0	726998	500	+	TrialListWIT										tool4.bmp	tool	1	5	0	0	726498	200	5	489	726987		4				3	1	5		5				Obs_Study2_gamecontroller	72	1	"<?xml version=""1.0""?>\n<Clock xmlns:dt=""urn:schemas-microsoft-com:datatypes""><Description dt:dt=""string"">E-Prime Primary Realtime Clock</Description><StartTime><Timestamp dt:dt=""int"">0</Timestamp><DateUtc dt:dt=""string"">2016-10-17T16:47:24Z</DateUtc></StartTime><FrequencyChanges><FrequencyChange><Frequency dt:dt=""r8"">3215429</Frequency><Timestamp dt:dt=""r8"">5032453178924</Timestamp><Current dt:dt=""r8"">0</Current><DateUtc dt:dt=""string"">2016-10-17T16:47:24Z</DateUtc></FrequencyChange></FrequencyChanges></Clock>\n"	Obs_Study2_gamecontroller-1-1	6	4031	2	17933	2	6998	5	6594	60.002	1.1.0.222	1	-1247883393	toolLeft	posLeft	Professional	2.0.10.356	2.0.10.356	10/17/16	10/17/16 16:47	11:47:25	2.0.10.252	1			WITproc	TaskList	1	2	1	5	6	2				WIT_1	1	0	711015	1000	no	experimentalBlockWIT	WITBlockList	2	1	2	6					1					0	0	730531	0	2	5			1						blackFace1.bmp	0	17	728315	1000	800	1		3		mask.bmp	0	0	729715	316	No							0	0	729315	200	black	TrialProcWIT	3	0	16	730031	500	TOO SLOW	TrialListWIT										tool1.bmp	tool	0	5	0	0	729515	200		0	0		1				1	1	6						Obs_Study2_gamecontroller	72	1	"<?xml version=""1.0""?>\n<Clock xmlns:dt=""urn:schemas-microsoft-com:datatypes""><Description dt:dt=""string"">E-Prime Primary Realtime Clock</Description><StartTime><Timestamp dt:dt=""int"">0</Timestamp><DateUtc dt:dt=""string"">2016-10-17T16:47:24Z</DateUtc></StartTime><FrequencyChanges><FrequencyChange><Frequency dt:dt=""r8"">3215429</Frequency><Timestamp dt:dt=""r8"">5032453178924</Timestamp><Current dt:dt=""r8"">0</Current><DateUtc dt:dt=""string"">2016-10-17T16:47:24Z</DateUtc></FrequencyChange></FrequencyChanges></Clock>\n"	Obs_Study2_gamecontroller-1-1	6	4031	2	17933	2	6998	5	6594	60.002	1.1.0.222	1	-1247883393	toolLeft	posLeft	Professional	2.0.10.356	2.0.10.356	10/17/16	10/17/16 16:47	11:47:25	2.0.10.252	1			WITproc	TaskList	1	2	1	5	6	2				WIT_1	1	0	711015	1000	no	experimentalBlockWIT	WITBlockList	2	1	2	7					6					0	0	733548	0	2	6			1						blackFace6.bmp	0	17	731348	1000	1200	3		3		mask.bmp	0	0	732748	300	No							1	0	732348	200	black	TrialProcWIT	2	0	0	733048	500	+	TrialListWIT										weapon4.bmp	weapon	1	6	0	0	732548	200	6	431	732979						2	1	7	4					Obs_Study2_gamecontroller	72	1	"<?xml version=""1.0""?>\n<Clock xmlns:dt=""urn:schemas-microsoft-com:datatypes""><Description dt:dt=""string"">E-Prime Primary Realtime Clock</Description><StartTime><Timestamp dt:dt=""int"">0</Timestamp><DateUtc dt:dt=""string"">2016-10-17T16:47:24Z</DateUtc></StartTime><FrequencyChanges><FrequencyChange><Frequency dt:dt=""r8"">3215429</Frequency><Timestamp dt:dt=""r8"">5032453178924</Timestamp><Current dt:dt=""r8"">0</Current><DateUtc dt:dt=""string"">2016-10-17T16:47:24Z</DateUtc></FrequencyChange></FrequencyChanges></Clock>\n"	Obs_Study2_gamecontroller-1-1	6	4031	2	17933	2	6998	5	6594	60.002	1.1.0.222	1	-1247883393	toolLeft	posLeft	Professional	2.0.10.356	2.0.10.356	10/17/16	10/17/16 16:47	11:47:25	2.0.10.252	1			WITproc	TaskList	1	2	1	5	6	2				WIT_1	1	0	711015	1000	no	experimentalBlockWIT	WITBlockList	2	1	2	8					3					0	0	736981	0	2	5			1						blackFace3.bmp	0	17	734765	1000	1000	2		3		mask.bmp	0	0	736165	316	No							0	0	735765	200	black	TrialProcWIT	3	0	16	736481	500	TOO SLOW	TrialListWIT										tool2.bmp	tool	0	5	0	0	735965	200		0	0		2				1	1	8						Obs_Study2_gamecontroller	72	1	"<?xml version=""1.0""?>\n<Clock xmlns:dt=""urn:schemas-microsoft-com:datatypes""><Description dt:dt=""string"">E-Prime Primary Realtime Clock</Description><StartTime><Timestamp dt:dt=""int"">0</Timestamp><DateUtc dt:dt=""string"">2016-10-17T16:47:24Z</DateUtc></StartTime><FrequencyChanges><FrequencyChange><Frequency dt:dt=""r8"">3215429</Frequency><Timestamp dt:dt=""r8"">5032453178924</Timestamp><Current dt:dt=""r8"">0</Current><DateUtc dt:dt=""string"">2016-10-17T16:47:24Z</DateUtc></FrequencyChange></FrequencyChanges></Clock>\n"	Obs_Study2_gamecontroller-1-1	6	4031	2	17933	2	6998	5	6594	60.002	1.1.0.222	1	-1247883393	toolLeft	posLeft	Professional	2.0.10.356	2.0.10.356	10/17/16	10/17/16 16:47	11:47:25	2.0.10.252	1			WITproc	TaskList	1	2	1	5	6	2				WIT_1	1	0	711015	1000	no	experimentalBlockWIT	WITBlockList	2	1	2	9										0	0	740198	0	2	6			1						whiteFace6.bmp	0	17	737998	1000	1200	3		3		mask.bmp	0	0	739398	300	No							0	0	738998	200	white	TrialProcWIT	2	0	0	739698	500	+	TrialListWIT										weapon3.bmp	weapon	1	6	0	0	739198	200	6	409	739607						4	1	9	3	6				Obs_Study2_gamecontroller	72	1	"<?xml version=""1.0""?>\n<Clock xmlns:dt=""urn:schemas-microsoft-com:datatypes""><Description dt:dt=""string"">E-Prime Primary Realtime Clock</Description><StartTime><Timestamp dt:dt=""int"">0</Timestamp><DateUtc dt:dt=""string"">2016-10-17T16:47:24Z</DateUtc></StartTime><FrequencyChanges><FrequencyChange><Frequency dt:dt=""r8"">3215429</Frequency><Timestamp dt:dt=""r8"">5032453178924</Timestamp><Current dt:dt=""r8"">0</Current><DateUtc dt:dt=""string"">2016-10-17T16:47:24Z</DateUtc></FrequencyChange></FrequencyChanges></Clock>\n"	Obs_Study2_gamecontroller-1-1	6	4031	2	17933	2	6998	5	6594	60.002	1.1.0.222	1	-1247883393	toolLeft	posLeft	Professional	2.0.10.356	2.0.10.356	10/17/16	10/17/16 16:47	11:47:25	2.0.10.252	1			WITproc	TaskList	1	2	1	5	6	2				WIT_1	1	0	711015	1000	no	experimentalBlockWIT	WITBlockList	2	1	2	10										0	-1	743614	0	2	6			1						whiteFace7.bmp	1	16	741414	1000	1000	2		3		mask.bmp	1	0	742814	301	No							1	0	742414	200	white	TrialProcWIT	3	0	1	743115	499	TOO SLOW	TrialListWIT										weapon1.bmp	weapon	0	6	0	0	742614	200		0	0						4	1	10	1	7				Obs_Study2_gamecontroller	72	1	"<?xml version=""1.0""?>\n<Clock xmlns:dt=""urn:schemas-microsoft-com:datatypes""><Description dt:dt=""string"">E-Prime Primary Realtime Clock</Description><StartTime><Timestamp dt:dt=""int"">0</Timestamp><DateUtc dt:dt=""string"">2016-10-17T16:47:24Z</DateUtc></StartTime><FrequencyChanges><FrequencyChange><Frequency dt:dt=""r8"">3215429</Frequency><Timestamp dt:dt=""r8"">5032453178924</Timestamp><Current dt:dt=""r8"">0</Current><DateUtc dt:dt=""string"">2016-10-17T16:47:24Z</DateUtc></FrequencyChange></FrequencyChanges></Clock>\n"	Obs_Study2_gamecontroller-1-1	6	4031	2	17933	2	6998	5	6594	60.002	1.1.0.222	1	-1247883393	toolLeft	posLeft	Professional	2.0.10.356	2.0.10.356	10/17/16	10/17/16 16:47	11:47:25	2.0.10.252	1			WITproc	TaskList	1	2	1	5	6	2				WIT_1	1	0	711015	1000	no	experimentalBlockWIT	WITBlockList	2	1	2	11					8					0	0	746831	0	2	6			1						blackFace8.bmp	0	17	744631	1000	800	1		3		mask.bmp	0	0	746031	300	No							0	0	745631	200	black	TrialProcWIT	2	0	0	746331	500	+	TrialListWIT										weapon2.bmp	weapon	1	6	0	0	745831	200	6	492	746323						2	1	11	2					Obs_Study2_gamecontroller	72	1	"<?xml version=""1.0""?>\n<Clock xmlns:dt=""urn:schemas-microsoft-com:datatypes""><Description dt:dt=""string"">E-Prime Primary Realtime Clock</Description><StartTime><Timestamp dt:dt=""int"">0</Timestamp><DateUtc dt:dt=""string"">2016-10-17T16:47:24Z</DateUtc></StartTime><FrequencyChanges><FrequencyChange><Frequency dt:dt=""r8"">3215429</Frequency><Timestamp dt:dt=""r8"">5032453178924</Timestamp><Current dt:dt=""r8"">0</Current><DateUtc dt:dt=""string"">2016-10-17T16:47:24Z</DateUtc></FrequencyChange></FrequencyChanges></Clock>\n"	Obs_Study2_gamecontroller-1-1	6	4031	2	17933	2	6998	5	6594	60.002	1.1.0.222	1	-1247883393	toolLeft	posLeft	Professional	2.0.10.356	2.0.10.356	10/17/16	10/17/16 16:47	11:47:25	2.0.10.252	1			WITproc	TaskList	1	2	1	5	6	2				WIT_1	1	0	711015	1000	no	experimentalBlockWIT	WITBlockList	2	1	2	12										0	0	749848	0	2	5			1						whiteFace8.bmp	0	17	747648	1000	800	1		3		mask.bmp	0	0	749048	300	No							0	0	748648	200	white	TrialProcWIT	2	0	0	749348	500	+	TrialListWIT										tool3.bmp	tool	1	5	0	0	748848	200	5	447	749295		3				3	1	12		8				Obs_Study2_gamecontroller	72	1	"<?xml version=""1.0""?>\n<Clock xmlns:dt=""urn:schemas-microsoft-com:datatypes""><Description dt:dt=""string"">E-Prime Primary Realtime Clock</Description><StartTime><Timestamp dt:dt=""int"">0</Timestamp><DateUtc dt:dt=""string"">2016-10-17T16:47:24Z</DateUtc></StartTime><FrequencyChanges><FrequencyChange><Frequency dt:dt=""r8"">3215429</Frequency><Timestamp dt:dt=""r8"">5032453178924</Timestamp><Current dt:dt=""r8"">0</Current><DateUtc dt:dt=""string"">2016-10-17T16:47:24Z</DateUtc></FrequencyChange></FrequencyChanges></Clock>\n"	Obs_Study2_gamecontroller-1-1	6	4031	2	17933	2	6998	5	6594	60.002	1.1.0.222	1	-1247883393	toolLeft	posLeft	Professional	2.0.10.356	2.0.10.356	10/17/16	10/17/16 16:47	11:47:25	2.0.10.252	1			WITproc	TaskList	1	2	1	5	6	2				WIT_1	1	0	711015	1000	no	experimentalBlockWIT	WITBlockList	2	1	2	13										0	0	752864	0	2	6			1						whiteFace1.bmp	1	16	750664	1000	1000	2		3		mask.bmp	0	0	752064	300	No							1	0	751664	200	white	TrialProcWIT	2	0	0	752364	500	+	TrialListWIT										weapon3.bmp	weapon	1	6	0	0	751864	200	6	435	752299						4	1	13	3	1				Obs_Study2_gamecontroller	72	1	"<?xml version=""1.0""?>\n<Clock xmlns:dt=""urn:schemas-microsoft-com:datatypes""><Description dt:dt=""string"">E-Prime Primary Realtime Clock</Description><StartTime><Timestamp dt:dt=""int"">0</Timestamp><DateUtc dt:dt=""string"">2016-10-17T16:47:24Z</DateUtc></StartTime><FrequencyChanges><FrequencyChange><Frequency dt:dt=""r8"">3215429</Frequency><Timestamp dt:dt=""r8"">5032453178924</Timestamp><Current dt:dt=""r8"">0</Current><DateUtc dt:dt=""string"">2016-10-17T16:47:24Z</DateUtc></FrequencyChange></FrequencyChanges></Clock>\n"	Obs_Study2_gamecontroller-1-1	6	4031	2	17933	2	6998	5	6594	60.002	1.1.0.222	1	-1247883393	toolLeft	posLeft	Professional	2.0.10.356	2.0.10.356	10/17/16	10/17/16 16:47	11:47:25	2.0.10.252	1			WITproc	TaskList	1	2	1	5	6	2				WIT_1	1	0	711015	1000	no	experimentalBlockWIT	WITBlockList	2	1	2	14					4					0	0	756097	0	2	5			1						blackFace4.bmp	0	17	753881	1000	1200	3		3		mask.bmp	0	0	755281	316	No							0	0	754881	200	black	TrialProcWIT	3	0	16	755597	500	TOO SLOW	TrialListWIT										tool1.bmp	tool	0	5	0	0	755081	200		0	0		1				1	1	14						Obs_Study2_gamecontroller	72	1	"<?xml version=""1.0""?>\n<Clock xmlns:dt=""urn:schemas-microsoft-com:datatypes""><Description dt:dt=""string"">E-Prime Primary Realtime Clock</Description><StartTime><Timestamp dt:dt=""int"">0</Timestamp><DateUtc dt:dt=""string"">2016-10-17T16:47:24Z</DateUtc></StartTime><FrequencyChanges><FrequencyChange><Frequency dt:dt=""r8"">3215429</Frequency><Timestamp dt:dt=""r8"">5032453178924</Timestamp><Current dt:dt=""r8"">0</Current><DateUtc dt:dt=""string"">2016-10-17T16:47:24Z</DateUtc></FrequencyChange></FrequencyChanges></Clock>\n"	Obs_Study2_gamecontroller-1-1	6	4031	2	17933	2	6998	5	6594	60.002	1.1.0.222	1	-1247883393	toolLeft	posLeft	Professional	2.0.10.356	2.0.10.356	10/17/16	10/17/16 16:47	11:47:25	2.0.10.252	1			WITproc	TaskList	1	2	1	5	6	2				WIT_1	1	0	711015	1000	no	experimentalBlockWIT	WITBlockList	2	1	2	15					2					0	0	759531	0	2	6			1						blackFace2.bmp	0	17	757314	1000	800	1		3		mask.bmp	0	0	758714	317	No							0	0	758314	200	black	TrialProcWIT	3	0	17	759031	500	TOO SLOW	TrialListWIT										weapon2.bmp	weapon	0	6	0	0	758514	200		0	0						2	1	15	2					Obs_Study2_gamecontroller	72	1	"<?xml version=""1.0""?>\n<Clock xmlns:dt=""urn:schemas-microsoft-com:datatypes""><Description dt:dt=""string"">E-Prime Primary Realtime Clock</Description><StartTime><Timestamp dt:dt=""int"">0</Timestamp><DateUtc dt:dt=""string"">2016-10-17T16:47:24Z</DateUtc></StartTime><FrequencyChanges><FrequencyChange><Frequency dt:dt=""r8"">3215429</Frequency><Timestamp dt:dt=""r8"">5032453178924</Timestamp><Current dt:dt=""r8"">0</Current><DateUtc dt:dt=""string"">2016-10-17T16:47:24Z</DateUtc></FrequencyChange></FrequencyChanges></Clock>\n"	Obs_Study2_gamecontroller-1-1	6	4031	2	17933	2	6998	5	6594	60.002	1.1.0.222	1	-1247883393	toolLeft	posLeft	Professional	2.0.10.356	2.0.10.356	10/17/16	10/17/16 16:47	11:47:25	2.0.10.252	1			WITproc	TaskList	1	2	1	5	6	2				WIT_1	1	0	711015	1000	no	experimentalBlockWIT	WITBlockList	2	1	2	16					5					0	0	762547	0	2	5			1						blackFace5.bmp	1	16	760347	1000	1000	2		3		mask.bmp	0	0	761747	300	No							1	0	761347	200	black	TrialProcWIT	2	0	0	762047	500	+	TrialListWIT										tool3.bmp	tool	1	5	0	0	761547	200	5	407	761954		3				1	1	16						Obs_Study2_gamecontroller	72	1	"<?xml version=""1.0""?>\n<Clock xmlns:dt=""urn:schemas-microsoft-com:datatypes""><Description dt:dt=""string"">E-Prime Primary Realtime Clock</Description><StartTime><Timestamp dt:dt=""int"">0</Timestamp><DateUtc dt:dt=""string"">2016-10-17T16:47:24Z</DateUtc></StartTime><FrequencyChanges><FrequencyChange><Frequency dt:dt=""r8"">3215429</Frequency><Timestamp dt:dt=""r8"">5032453178924</Timestamp><Current dt:dt=""r8"">0</Current><DateUtc dt:dt=""string"">2016-10-17T16:47:24Z</DateUtc></FrequencyChange></FrequencyChanges></Clock>\n"	Obs_Study2_gamecontroller-1-1	6	4031	2	17933	2	6998	5	6594	60.002	1.1.0.222	1	-1247883393	toolLeft	posLeft	Professional	2.0.10.356	2.0.10.356	10/17/16	10/17/16 16:47	11:47:25	2.0.10.252	1			WITproc	TaskList	1	2	1	5	6	2				WIT_1	1	0	711015	1000	no	experimentalBlockWIT	WITBlockList	2	1	2	17					7					0	0	765764	0	2	5			1						blackFace7.bmp	0	17	763564	1000	1200	3		3		mask.bmp	0	0	764964	300	No							0	0	764564	200	black	TrialProcWIT	2	0	0	765264	500	+	TrialListWIT										tool2.bmp	tool	1	5	0	0	764764	200	5	418	765182		2				1	1	17						Obs_Study2_gamecontroller	72	1	"<?xml version=""1.0""?>\n<Clock xmlns:dt=""urn:schemas-microsoft-com:datatypes""><Description dt:dt=""string"">E-Prime Primary Realtime Clock</Description><StartTime><Timestamp dt:dt=""int"">0</Timestamp><DateUtc dt:dt=""string"">2016-10-17T16:47:24Z</DateUtc></StartTime><FrequencyChanges><FrequencyChange><Frequency dt:dt=""r8"">3215429</Frequency><Timestamp dt:dt=""r8"">5032453178924</Timestamp><Current dt:dt=""r8"">0</Current><DateUtc dt:dt=""string"">2016-10-17T16:47:24Z</DateUtc></FrequencyChange></FrequencyChanges></Clock>\n"	Obs_Study2_gamecontroller-1-1	6	4031	2	17933	2	6998	5	6594	60.002	1.1.0.222	1	-1247883393	toolLeft	posLeft	Professional	2.0.10.356	2.0.10.356	10/17/16	10/17/16 16:47	11:47:25	2.0.10.252	1			WITproc	TaskList	1	2	1	5	6	2				WIT_1	1	0	711015	1000	no	experimentalBlockWIT	WITBlockList	2	1	2	18										0	0	769197	0	2	5			1						whiteFace2.bmp	1	16	766980	1000	1000	2		3		mask.bmp	1	0	768380	317	No							1	0	767980	200	white	TrialProcWIT	3	0	17	768697	500	TOO SLOW	TrialListWIT										tool4.bmp	tool	0	5	0	0	768180	200		0	0		4				3	1	18		2				Obs_Study2_gamecontroller	72	1	"<?xml version=""1.0""?>\n<Clock xmlns:dt=""urn:schemas-microsoft-com:datatypes""><Description dt:dt=""string"">E-Prime Primary Realtime Clock</Description><StartTime><Timestamp dt:dt=""int"">0</Timestamp><DateUtc dt:dt=""string"">2016-10-17T16:47:24Z</DateUtc></StartTime><FrequencyChanges><FrequencyChange><Frequency dt:dt=""r8"">3215429</Frequency><Timestamp dt:dt=""r8"">5032453178924</Timestamp><Current dt:dt=""r8"">0</Current><DateUtc dt:dt=""string"">2016-10-17T16:47:24Z</DateUtc></FrequencyChange></FrequencyChanges></Clock>\n"	Obs_Study2_gamecontroller-1-1	6	4031	2	17933	2	6998	5	6594	60.002	1.1.0.222	1	-1247883393	toolLeft	posLeft	Professional	2.0.10.356	2.0.10.356	10/17/16	10/17/16 16:47	11:47:25	2.0.10.252	1			WITproc	TaskList	1	2	1	5	6	2				WIT_1	1	0	711015	1000	no	experimentalBlockWIT	WITBlockList	2	1	2	19					2					0	0	772414	0	2	5			1						blackFace2.bmp	0	17	770214	1000	1200	3		3		mask.bmp	0	0	771614	300	No							0	0	771214	200	black	TrialProcWIT	1	0	0	771914	500	+	TrialListWIT										tool3.bmp	tool	0	5	0	0	771414	200	6	496	771910		3				1	1	19						Obs_Study2_gamecontroller	72	1	"<?xml version=""1.0""?>\n<Clock xmlns:dt=""urn:schemas-microsoft-com:datatypes""><Description dt:dt=""string"">E-Prime Primary Realtime Clock</Description><StartTime><Timestamp dt:dt=""int"">0</Timestamp><DateUtc dt:dt=""string"">2016-10-17T16:47:24Z</DateUtc></StartTime><FrequencyChanges><FrequencyChange><Frequency dt:dt=""r8"">3215429</Frequency><Timestamp dt:dt=""r8"">5032453178924</Timestamp><Current dt:dt=""r8"">0</Current><DateUtc dt:dt=""string"">2016-10-17T16:47:24Z</DateUtc></FrequencyChange></FrequencyChanges></Clock>\n"	Obs_Study2_gamecontroller-1-1	6	4031	2	17933	2	6998	5	6594	60.002	1.1.0.222	1	-1247883393	toolLeft	posLeft	Professional	2.0.10.356	2.0.10.356	10/17/16	10/17/16 16:47	11:47:25	2.0.10.252	1			WITproc	TaskList	1	2	1	5	6	2				WIT_1	1	0	711015	1000	no	experimentalBlockWIT	WITBlockList	2	1	2	20					1					0	0	775830	0	2	5			1						blackFace1.bmp	0	16	773630	1000	800	1		3		mask.bmp	0	0	775030	300	No							1	0	774630	200	black	TrialProcWIT	2	0	0	775330	500	+	TrialListWIT										tool1.bmp	tool	1	5	0	0	774830	200	5	432	775262		1				1	1	20						Obs_Study2_gamecontroller	72	1	"<?xml version=""1.0""?>\n<Clock xmlns:dt=""urn:schemas-microsoft-com:datatypes""><Description dt:dt=""string"">E-Prime Primary Realtime Clock</Description><StartTime><Timestamp dt:dt=""int"">0</Timestamp><DateUtc dt:dt=""string"">2016-10-17T16:47:24Z</DateUtc></StartTime><FrequencyChanges><FrequencyChange><Frequency dt:dt=""r8"">3215429</Frequency><Timestamp dt:dt=""r8"">5032453178924</Timestamp><Current dt:dt=""r8"">0</Current><DateUtc dt:dt=""string"">2016-10-17T16:47:24Z</DateUtc></FrequencyChange></FrequencyChanges></Clock>\n"	Obs_Study2_gamecontroller-1-1	6	4031	2	17933	2	6998	5	6594	60.002	1.1.0.222	1	-1247883393	toolLeft	posLeft	Professional	2.0.10.356	2.0.10.356	10/17/16	10/17/16 16:47	11:47:25	2.0.10.252	1			WITproc	TaskList	1	2	1	5	6	2				WIT_1	1	0	711015	1000	no	experimentalBlockWIT	WITBlockList	2	1	2	21										0	0	778847	0	2	6			1						whiteFace3.bmp	0	17	776647	1000	800	1		3		mask.bmp	0	0	778047	300	No							0	0	777647	200	white	TrialProcWIT	2	0	0	778347	500	+	TrialListWIT										weapon4.bmp	weapon	1	6	0	0	777847	200	6	399	778246						4	1	21	4	3				Obs_Study2_gamecontroller	72	1	"<?xml version=""1.0""?>\n<Clock xmlns:dt=""urn:schemas-microsoft-com:datatypes""><Description dt:dt=""string"">E-Prime Primary Realtime Clock</Description><StartTime><Timestamp dt:dt=""int"">0</Timestamp><DateUtc dt:dt=""string"">2016-10-17T16:47:24Z</DateUtc></StartTime><FrequencyChanges><FrequencyChange><Frequency dt:dt=""r8"">3215429</Frequency><Timestamp dt:dt=""r8"">5032453178924</Timestamp><Current dt:dt=""r8"">0</Current><DateUtc dt:dt=""string"">2016-10-17T16:47:24Z</DateUtc></FrequencyChange></FrequencyChanges></Clock>\n"	Obs_Study2_gamecontroller-1-1	6	4031	2	17933	2	6998	5	6594	60.002	1.1.0.222	1	-1247883393	toolLeft	posLeft	Professional	2.0.10.356	2.0.10.356	10/17/16	10/17/16 16:47	11:47:25	2.0.10.252	1			WITproc	TaskList	1	2	1	5	6	2				WIT_1	1	0	711015	1000	no	experimentalBlockWIT	WITBlockList	2	1	2	22										0	0	781863	0	2	5			1						whiteFace4.bmp	1	16	779663	1000	1000	2		3		mask.bmp	1	0	781063	300	No							1	0	780663	200	white	TrialProcWIT	2	0	0	781363	500	+	TrialListWIT										tool4.bmp	tool	1	5	0	0	780863	200	5	419	781282		4				3	1	22		4				Obs_Study2_gamecontroller	72	1	"<?xml version=""1.0""?>\n<Clock xmlns:dt=""urn:schemas-microsoft-com:datatypes""><Description dt:dt=""string"">E-Prime Primary Realtime Clock</Description><StartTime><Timestamp dt:dt=""int"">0</Timestamp><DateUtc dt:dt=""string"">2016-10-17T16:47:24Z</DateUtc></StartTime><FrequencyChanges><FrequencyChange><Frequency dt:dt=""r8"">3215429</Frequency><Timestamp dt:dt=""r8"">5032453178924</Timestamp><Current dt:dt=""r8"">0</Current><DateUtc dt:dt=""string"">2016-10-17T16:47:24Z</DateUtc></FrequencyChange></FrequencyChanges></Clock>\n"	Obs_Study2_gamecontroller-1-1	6	4031	2	17933	2	6998	5	6594	60.002	1.1.0.222	1	-1247883393	toolLeft	posLeft	Professional	2.0.10.356	2.0.10.356	10/17/16	10/17/16 16:47	11:47:25	2.0.10.252	1			WITproc	TaskList	1	2	1	5	6	2				WIT_1	1	0	711015	1000	no	experimentalBlockWIT	WITBlockList	2	1	2	23					5					0	0	785080	0	2	6			1						blackFace5.bmp	0	17	782880	1000	1200	3		3		mask.bmp	0	0	784280	300	No							0	0	783880	200	black	TrialProcWIT	2	0	0	784580	500	+	TrialListWIT										weapon1.bmp	weapon	1	6	0	0	784080	200	6	478	784558						2	1	23	1					Obs_Study2_gamecontroller	72	1	"<?xml version=""1.0""?>\n<Clock xmlns:dt=""urn:schemas-microsoft-com:datatypes""><Description dt:dt=""string"">E-Prime Primary Realtime Clock</Description><StartTime><Timestamp dt:dt=""int"">0</Timestamp><DateUtc dt:dt=""string"">2016-10-17T16:47:24Z</DateUtc></StartTime><FrequencyChanges><FrequencyChange><Frequency dt:dt=""r8"">3215429</Frequency><Timestamp dt:dt=""r8"">5032453178924</Timestamp><Current dt:dt=""r8"">0</Current><DateUtc dt:dt=""string"">2016-10-17T16:47:24Z</DateUtc></FrequencyChange></FrequencyChanges></Clock>\n"	Obs_Study2_gamecontroller-1-1	6	4031	2	17933	2	6998	5	6594	60.002	1.1.0.222	1	-1247883393	toolLeft	posLeft	Professional	2.0.10.356	2.0.10.356	10/17/16	10/17/16 16:47	11:47:25	2.0.10.252	1			WITproc	TaskList	1	2	1	5	6	2				WIT_1	1	0	711015	1000	no	experimentalBlockWIT	WITBlockList	2	1	2	24					4					0	0	788496	0	2	6			1						blackFace4.bmp	1	16	786296	1000	1200	3		3		mask.bmp	1	0	787696	300	No							1	0	787296	200	black	TrialProcWIT	2	0	0	787996	500	+	TrialListWIT										weapon4.bmp	weapon	1	6	0	0	787496	200	6	365	787861						2	1	24	4					Obs_Study2_gamecontroller	72	1	"<?xml version=""1.0""?>\n<Clock xmlns:dt=""urn:schemas-microsoft-com:datatypes""><Description dt:dt=""string"">E-Prime Primary Realtime Clock</Description><StartTime><Timestamp dt:dt=""int"">0</Timestamp><DateUtc dt:dt=""string"">2016-10-17T16:47:24Z</DateUtc></StartTime><FrequencyChanges><FrequencyChange><Frequency dt:dt=""r8"">3215429</Frequency><Timestamp dt:dt=""r8"">5032453178924</Timestamp><Current dt:dt=""r8"">0</Current><DateUtc dt:dt=""string"">2016-10-17T16:47:24Z</DateUtc></FrequencyChange></FrequencyChanges></Clock>\n"	Obs_Study2_gamecontroller-1-1	6	4031	2	17933	2	6998	5	6594	60.002	1.1.0.222	1	-1247883393	toolLeft	posLeft	Professional	2.0.10.356	2.0.10.356	10/17/16	10/17/16 16:47	11:47:25	2.0.10.252	1			WITproc	TaskList	1	2	1	5	6	2				WIT_1	1	0	711015	1000	no	experimentalBlockWIT	WITBlockList	2	1	2	25										0	0	791913	0	2	6			1						whiteFace5.bmp	0	17	789713	1000	1000	2		3		mask.bmp	0	0	791113	300	No							0	0	790713	200	white	TrialProcWIT	1	0	0	791413	500	+	TrialListWIT										weapon3.bmp	weapon	0	6	0	0	790913	200	5	356	791269						4	1	25	3	5				Obs_Study2_gamecontroller	72	1	"<?xml version=""1.0""?>\n<Clock xmlns:dt=""urn:schemas-microsoft-com:datatypes""><Description dt:dt=""string"">E-Prime Primary Realtime Clock</Description><StartTime><Timestamp dt:dt=""int"">0</Timestamp><DateUtc dt:dt=""string"">2016-10-17T16:47:24Z</DateUtc></StartTime><FrequencyChanges><FrequencyChange><Frequency dt:dt=""r8"">3215429</Frequency><Timestamp dt:dt=""r8"">5032453178924</Timestamp><Current dt:dt=""r8"">0</Current><DateUtc dt:dt=""string"">2016-10-17T16:47:24Z</DateUtc></FrequencyChange></FrequencyChanges></Clock>\n"	Obs_Study2_gamecontroller-1-1	6	4031	2	17933	2	6998	5	6594	60.002	1.1.0.222	1	-1247883393	toolLeft	posLeft	Professional	2.0.10.356	2.0.10.356	10/17/16	10/17/16 16:47	11:47:25	2.0.10.252	1			WITproc	TaskList	1	2	1	5	6	2				WIT_1	1	0	711015	1000	no	experimentalBlockWIT	WITBlockList	2	1	2	26										0	-1	795129	0	2	6			1						whiteFace6.bmp	0	17	792930	1000	800	1		3		mask.bmp	0	0	794330	300	No							0	0	793930	200	white	TrialProcWIT	2	0	0	794630	499	+	TrialListWIT										weapon2.bmp	weapon	1	6	0	0	794130	200	6	419	794549						4	1	26	2	6				Obs_Study2_gamecontroller	72	1	"<?xml version=""1.0""?>\n<Clock xmlns:dt=""urn:schemas-microsoft-com:datatypes""><Description dt:dt=""string"">E-Prime Primary Realtime Clock</Description><StartTime><Timestamp dt:dt=""int"">0</Timestamp><DateUtc dt:dt=""string"">2016-10-17T16:47:24Z</DateUtc></StartTime><FrequencyChanges><FrequencyChange><Frequency dt:dt=""r8"">3215429</Frequency><Timestamp dt:dt=""r8"">5032453178924</Timestamp><Current dt:dt=""r8"">0</Current><DateUtc dt:dt=""string"">2016-10-17T16:47:24Z</DateUtc></FrequencyChange></FrequencyChanges></Clock>\n"	Obs_Study2_gamecontroller-1-1	6	4031	2	17933	2	6998	5	6594	60.002	1.1.0.222	1	-1247883393	toolLeft	posLeft	Professional	2.0.10.356	2.0.10.356	10/17/16	10/17/16 16:47	11:47:25	2.0.10.252	1			WITproc	TaskList	1	2	1	5	6	2				WIT_1	1	0	711015	1000	no	experimentalBlockWIT	WITBlockList	2	1	2	27					7					0	0	798146	0	2	6			1						blackFace7.bmp	0	17	795946	1000	800	1		3		mask.bmp	0	0	797346	300	No							0	0	796946	200	black	TrialProcWIT	2	0	0	797646	500	+	TrialListWIT										weapon1.bmp	weapon	1	6	0	0	797146	200	6	483	797629						2	1	27	1					Obs_Study2_gamecontroller	72	1	"<?xml version=""1.0""?>\n<Clock xmlns:dt=""urn:schemas-microsoft-com:datatypes""><Description dt:dt=""string"">E-Prime Primary Realtime Clock</Description><StartTime><Timestamp dt:dt=""int"">0</Timestamp><DateUtc dt:dt=""string"">2016-10-17T16:47:24Z</DateUtc></StartTime><FrequencyChanges><FrequencyChange><Frequency dt:dt=""r8"">3215429</Frequency><Timestamp dt:dt=""r8"">5032453178924</Timestamp><Current dt:dt=""r8"">0</Current><DateUtc dt:dt=""string"">2016-10-17T16:47:24Z</DateUtc></FrequencyChange></FrequencyChanges></Clock>\n"	Obs_Study2_gamecontroller-1-1	6	4031	2	17933	2	6998	5	6594	60.002	1.1.0.222	1	-1247883393	toolLeft	posLeft	Professional	2.0.10.356	2.0.10.356	10/17/16	10/17/16 16:47	11:47:25	2.0.10.252	1			WITproc	TaskList	1	2	1	5	6	2				WIT_1	1	0	711015	1000	no	experimentalBlockWIT	WITBlockList	2	1	2	28					6					0	0	801163	0	2	6			1						blackFace6.bmp	0	17	798963	1000	1200	3		3		mask.bmp	0	0	800363	300	No							0	0	799963	200	black	TrialProcWIT	2	0	0	800663	500	+	TrialListWIT										weapon4.bmp	weapon	1	6	0	0	800163	200	6	402	800565						2	1	28	4					Obs_Study2_gamecontroller	72	1	"<?xml version=""1.0""?>\n<Clock xmlns:dt=""urn:schemas-microsoft-com:datatypes""><Description dt:dt=""string"">E-Prime Primary Realtime Clock</Description><StartTime><Timestamp dt:dt=""int"">0</Timestamp><DateUtc dt:dt=""string"">2016-10-17T16:47:24Z</DateUtc></StartTime><FrequencyChanges><FrequencyChange><Frequency dt:dt=""r8"">3215429</Frequency><Timestamp dt:dt=""r8"">5032453178924</Timestamp><Current dt:dt=""r8"">0</Current><DateUtc dt:dt=""string"">2016-10-17T16:47:24Z</DateUtc></FrequencyChange></FrequencyChanges></Clock>\n"	Obs_Study2_gamecontroller-1-1	6	4031	2	17933	2	6998	5	6594	60.002	1.1.0.222	1	-1247883393	toolLeft	posLeft	Professional	2.0.10.356	2.0.10.356	10/17/16	10/17/16 16:47	11:47:25	2.0.10.252	1			WITproc	TaskList	1	2	1	5	6	2				WIT_1	1	0	711015	1000	no	experimentalBlockWIT	WITBlockList	2	1	2	29					3					0	0	804579	0	2	6			1						blackFace3.bmp	1	16	802379	1000	1000	2		3		mask.bmp	0	0	803779	300	No							1	0	803379	200	black	TrialProcWIT	2	0	0	804079	500	+	TrialListWIT										weapon1.bmp	weapon	1	6	0	0	803579	200	6	442	804021						2	1	29	1					Obs_Study2_gamecontroller	72	1	"<?xml version=""1.0""?>\n<Clock xmlns:dt=""urn:schemas-microsoft-com:datatypes""><Description dt:dt=""string"">E-Prime Primary Realtime Clock</Description><StartTime><Timestamp dt:dt=""int"">0</Timestamp><DateUtc dt:dt=""string"">2016-10-17T16:47:24Z</DateUtc></StartTime><FrequencyChanges><FrequencyChange><Frequency dt:dt=""r8"">3215429</Frequency><Timestamp dt:dt=""r8"">5032453178924</Timestamp><Current dt:dt=""r8"">0</Current><DateUtc dt:dt=""string"">2016-10-17T16:47:24Z</DateUtc></FrequencyChange></FrequencyChanges></Clock>\n"	Obs_Study2_gamecontroller-1-1	6	4031	2	17933	2	6998	5	6594	60.002	1.1.0.222	1	-1247883393	toolLeft	posLeft	Professional	2.0.10.356	2.0.10.356	10/17/16	10/17/16 16:47	11:47:25	2.0.10.252	1			WITproc	TaskList	1	2	1	5	6	2				WIT_1	1	0	711015	1000	no	experimentalBlockWIT	WITBlockList	2	1	2	30										0	0	807796	0	2	6			1						whiteFace7.bmp	0	17	805596	1000	800	1		3		mask.bmp	0	0	806996	300	No							0	0	806596	200	white	TrialProcWIT	2	0	0	807296	500	+	TrialListWIT										weapon2.bmp	weapon	1	6	0	0	806796	200	6	413	807209						4	1	30	2	7				Obs_Study2_gamecontroller	72	1	"<?xml version=""1.0""?>\n<Clock xmlns:dt=""urn:schemas-microsoft-com:datatypes""><Description dt:dt=""string"">E-Prime Primary Realtime Clock</Description><StartTime><Timestamp dt:dt=""int"">0</Timestamp><DateUtc dt:dt=""string"">2016-10-17T16:47:24Z</DateUtc></StartTime><FrequencyChanges><FrequencyChange><Frequency dt:dt=""r8"">3215429</Frequency><Timestamp dt:dt=""r8"">5032453178924</Timestamp><Current dt:dt=""r8"">0</Current><DateUtc dt:dt=""string"">2016-10-17T16:47:24Z</DateUtc></FrequencyChange></FrequencyChanges></Clock>\n"	Obs_Study2_gamecontroller-1-1	6	4031	2	17933	2	6998	5	6594	60.002	1.1.0.222	1	-1247883393	toolLeft	posLeft	Professional	2.0.10.356	2.0.10.356	10/17/16	10/17/16 16:47	11:47:25	2.0.10.252	1			WITproc	TaskList	1	2	1	5	6	2				WIT_1	1	0	711015	1000	no	experimentalBlockWIT	WITBlockList	2	1	2	31										0	0	810812	0	2	6			1						whiteFace8.bmp	1	16	808612	1000	1000	2		3		mask.bmp	1	0	810012	300	No							1	0	809612	200	white	TrialProcWIT	2	0	0	810312	500	+	TrialListWIT										weapon3.bmp	weapon	1	6	0	0	809812	200	6	329	810141						4	1	31	3	8				Obs_Study2_gamecontroller	72	1	"<?xml version=""1.0""?>\n<Clock xmlns:dt=""urn:schemas-microsoft-com:datatypes""><Description dt:dt=""string"">E-Prime Primary Realtime Clock</Description><StartTime><Timestamp dt:dt=""int"">0</Timestamp><DateUtc dt:dt=""string"">2016-10-17T16:47:24Z</DateUtc></StartTime><FrequencyChanges><FrequencyChange><Frequency dt:dt=""r8"">3215429</Frequency><Timestamp dt:dt=""r8"">5032453178924</Timestamp><Current dt:dt=""r8"">0</Current><DateUtc dt:dt=""string"">2016-10-17T16:47:24Z</DateUtc></FrequencyChange></FrequencyChanges></Clock>\n"	Obs_Study2_gamecontroller-1-1	6	4031	2	17933	2	6998	5	6594	60.002	1.1.0.222	1	-1247883393	toolLeft	posLeft	Professional	2.0.10.356	2.0.10.356	10/17/16	10/17/16 16:47	11:47:25	2.0.10.252	1			WITproc	TaskList	1	2	1	5	6	2				WIT_1	1	0	711015	1000	no	experimentalBlockWIT	WITBlockList	2	1	2	32					8					0	0	814029	0	2	5			1						blackFace8.bmp	0	17	811829	1000	1200	3		3		mask.bmp	0	0	813229	300	No							0	0	812829	200	black	TrialProcWIT	2	0	0	813529	500	+	TrialListWIT										tool2.bmp	tool	1	5	0	0	813029	200	5	404	813433		2				1	1	32						Obs_Study2_gamecontroller	72	1	"<?xml version=""1.0""?>\n<Clock xmlns:dt=""urn:schemas-microsoft-com:datatypes""><Description dt:dt=""string"">E-Prime Primary Realtime Clock</Description><StartTime><Timestamp dt:dt=""int"">0</Timestamp><DateUtc dt:dt=""string"">2016-10-17T16:47:24Z</DateUtc></StartTime><FrequencyChanges><FrequencyChange><Frequency dt:dt=""r8"">3215429</Frequency><Timestamp dt:dt=""r8"">5032453178924</Timestamp><Current dt:dt=""r8"">0</Current><DateUtc dt:dt=""string"">2016-10-17T16:47:24Z</DateUtc></FrequencyChange></FrequencyChanges></Clock>\n"	Obs_Study2_gamecontroller-1-1	6	4031	2	17933	2	6998	5	6594	60.002	1.1.0.222	1	-1247883393	toolLeft	posLeft	Professional	2.0.10.356	2.0.10.356	10/17/16	10/17/16 16:47	11:47:25	2.0.10.252	1			WITproc	TaskList	1	2	1	5	6	2				WIT_1	1	0	711015	1000	no	experimentalBlockWIT	WITBlockList	2	1	2	33										0	0	817445	0	2	6			1						whiteFace1.bmp	0	17	815246	1000	1000	2		3		mask.bmp	1	0	816645	300	No							0	0	816246	199	white	TrialProcWIT	2	0	0	816945	500	+	TrialListWIT										weapon4.bmp	weapon	1	6	0	-1	816445	200	6	436	816881						4	2	33	4	1				Obs_Study2_gamecontroller	72	1	"<?xml version=""1.0""?>\n<Clock xmlns:dt=""urn:schemas-microsoft-com:datatypes""><Description dt:dt=""string"">E-Prime Primary Realtime Clock</Description><StartTime><Timestamp dt:dt=""int"">0</Timestamp><DateUtc dt:dt=""string"">2016-10-17T16:47:24Z</DateUtc></StartTime><FrequencyChanges><FrequencyChange><Frequency dt:dt=""r8"">3215429</Frequency><Timestamp dt:dt=""r8"">5032453178924</Timestamp><Current dt:dt=""r8"">0</Current><DateUtc dt:dt=""string"">2016-10-17T16:47:24Z</DateUtc></FrequencyChange></FrequencyChanges></Clock>\n"	Obs_Study2_gamecontroller-1-1	6	4031	2	17933	2	6998	5	6594	60.002	1.1.0.222	1	-1247883393	toolLeft	posLeft	Professional	2.0.10.356	2.0.10.356	10/17/16	10/17/16 16:47	11:47:25	2.0.10.252	1			WITproc	TaskList	1	2	1	5	6	2				WIT_1	1	0	711015	1000	no	experimentalBlockWIT	WITBlockList	2	1	2	34										0	0	820662	0	2	5			1						whiteFace2.bmp	0	17	818462	1000	1200	3		3		mask.bmp	0	0	819862	300	No							0	0	819462	200	white	TrialProcWIT	2	0	0	820162	500	+	TrialListWIT										tool4.bmp	tool	1	5	0	0	819662	200	5	438	820100		4				3	2	34		2				Obs_Study2_gamecontroller	72	1	"<?xml version=""1.0""?>\n<Clock xmlns:dt=""urn:schemas-microsoft-com:datatypes""><Description dt:dt=""string"">E-Prime Primary Realtime Clock</Description><StartTime><Timestamp dt:dt=""int"">0</Timestamp><DateUtc dt:dt=""string"">2016-10-17T16:47:24Z</DateUtc></StartTime><FrequencyChanges><FrequencyChange><Frequency dt:dt=""r8"">3215429</Frequency><Timestamp dt:dt=""r8"">5032453178924</Timestamp><Current dt:dt=""r8"">0</Current><DateUtc dt:dt=""string"">2016-10-17T16:47:24Z</DateUtc></FrequencyChange></FrequencyChanges></Clock>\n"	Obs_Study2_gamecontroller-1-1	6	4031	2	17933	2	6998	5	6594	60.002	1.1.0.222	1	-1247883393	toolLeft	posLeft	Professional	2.0.10.356	2.0.10.356	10/17/16	10/17/16 16:47	11:47:25	2.0.10.252	1			WITproc	TaskList	1	2	1	5	6	2				WIT_1	1	0	711015	1000	no	experimentalBlockWIT	WITBlockList	2	1	2	35										0	0	824079	0	2	6			1						whiteFace3.bmp	0	17	821879	1000	800	1		3		mask.bmp	0	0	823279	300	No							0	0	822879	200	white	TrialProcWIT	2	0	0	823579	500	+	TrialListWIT										weapon2.bmp	weapon	1	6	0	0	823079	200	6	485	823564						4	2	35	2	3				Obs_Study2_gamecontroller	72	1	"<?xml version=""1.0""?>\n<Clock xmlns:dt=""urn:schemas-microsoft-com:datatypes""><Description dt:dt=""string"">E-Prime Primary Realtime Clock</Description><StartTime><Timestamp dt:dt=""int"">0</Timestamp><DateUtc dt:dt=""string"">2016-10-17T16:47:24Z</DateUtc></StartTime><FrequencyChanges><FrequencyChange><Frequency dt:dt=""r8"">3215429</Frequency><Timestamp dt:dt=""r8"">5032453178924</Timestamp><Current dt:dt=""r8"">0</Current><DateUtc dt:dt=""string"">2016-10-17T16:47:24Z</DateUtc></FrequencyChange></FrequencyChanges></Clock>\n"	Obs_Study2_gamecontroller-1-1	6	4031	2	17933	2	6998	5	6594	60.002	1.1.0.222	1	-1247883393	toolLeft	posLeft	Professional	2.0.10.356	2.0.10.356	10/17/16	10/17/16 16:47	11:47:25	2.0.10.252	1			WITproc	TaskList	1	2	1	5	6	2				WIT_1	1	0	711015	1000	no	experimentalBlockWIT	WITBlockList	2	1	2	36					6					0	0	827095	0	2	6			1						blackFace6.bmp	1	16	824895	1000	1000	2		3		mask.bmp	1	0	826295	300	No							1	0	825895	200	black	TrialProcWIT	2	0	0	826595	500	+	TrialListWIT										weapon3.bmp	weapon	1	6	0	0	826095	200	6	421	826516						2	2	36	3					Obs_Study2_gamecontroller	72	1	"<?xml version=""1.0""?>\n<Clock xmlns:dt=""urn:schemas-microsoft-com:datatypes""><Description dt:dt=""string"">E-Prime Primary Realtime Clock</Description><StartTime><Timestamp dt:dt=""int"">0</Timestamp><DateUtc dt:dt=""string"">2016-10-17T16:47:24Z</DateUtc></StartTime><FrequencyChanges><FrequencyChange><Frequency dt:dt=""r8"">3215429</Frequency><Timestamp dt:dt=""r8"">5032453178924</Timestamp><Current dt:dt=""r8"">0</Current><DateUtc dt:dt=""string"">2016-10-17T16:47:24Z</DateUtc></FrequencyChange></FrequencyChanges></Clock>\n"	Obs_Study2_gamecontroller-1-1	6	4031	2	17933	2	6998	5	6594	60.002	1.1.0.222	1	-1247883393	toolLeft	posLeft	Professional	2.0.10.356	2.0.10.356	10/17/16	10/17/16 16:47	11:47:25	2.0.10.252	1			WITproc	TaskList	1	2	1	5	6	2				WIT_1	1	0	711015	1000	no	experimentalBlockWIT	WITBlockList	2	1	2	37										0	0	830328	0	2	6			1						whiteFace4.bmp	0	17	828112	1000	1200	3		3		mask.bmp	0	0	829512	316	No							0	0	829112	200	white	TrialProcWIT	3	0	16	829828	500	TOO SLOW	TrialListWIT										weapon1.bmp	weapon	0	6	0	0	829312	200		0	0						4	2	37	1	4				Obs_Study2_gamecontroller	72	1	"<?xml version=""1.0""?>\n<Clock xmlns:dt=""urn:schemas-microsoft-com:datatypes""><Description dt:dt=""string"">E-Prime Primary Realtime Clock</Description><StartTime><Timestamp dt:dt=""int"">0</Timestamp><DateUtc dt:dt=""string"">2016-10-17T16:47:24Z</DateUtc></StartTime><FrequencyChanges><FrequencyChange><Frequency dt:dt=""r8"">3215429</Frequency><Timestamp dt:dt=""r8"">5032453178924</Timestamp><Current dt:dt=""r8"">0</Current><DateUtc dt:dt=""string"">2016-10-17T16:47:24Z</DateUtc></FrequencyChange></FrequencyChanges></Clock>\n"	Obs_Study2_gamecontroller-1-1	6	4031	2	17933	2	6998	5	6594	60.002	1.1.0.222	1	-1247883393	toolLeft	posLeft	Professional	2.0.10.356	2.0.10.356	10/17/16	10/17/16 16:47	11:47:25	2.0.10.252	1			WITproc	TaskList	1	2	1	5	6	2				WIT_1	1	0	711015	1000	no	experimentalBlockWIT	WITBlockList	2	1	2	38										0	0	833745	0	2	6			1						whiteFace5.bmp	0	17	831545	1000	800	1		3		mask.bmp	0	0	832945	300	No							0	0	832545	200	white	TrialProcWIT	2	0	0	833245	500	+	TrialListWIT										weapon2.bmp	weapon	1	6	0	0	832745	200	6	427	833172						4	2	38	2	5				Obs_Study2_gamecontroller	72	1	"<?xml version=""1.0""?>\n<Clock xmlns:dt=""urn:schemas-microsoft-com:datatypes""><Description dt:dt=""string"">E-Prime Primary Realtime Clock</Description><StartTime><Timestamp dt:dt=""int"">0</Timestamp><DateUtc dt:dt=""string"">2016-10-17T16:47:24Z</DateUtc></StartTime><FrequencyChanges><FrequencyChange><Frequency dt:dt=""r8"">3215429</Frequency><Timestamp dt:dt=""r8"">5032453178924</Timestamp><Current dt:dt=""r8"">0</Current><DateUtc dt:dt=""string"">2016-10-17T16:47:24Z</DateUtc></FrequencyChange></FrequencyChanges></Clock>\n"	Obs_Study2_gamecontroller-1-1	6	4031	2	17933	2	6998	5	6594	60.002	1.1.0.222	1	-1247883393	toolLeft	posLeft	Professional	2.0.10.356	2.0.10.356	10/17/16	10/17/16 16:47	11:47:25	2.0.10.252	1			WITproc	TaskList	1	2	1	5	6	2				WIT_1	1	0	711015	1000	no	experimentalBlockWIT	WITBlockList	2	1	2	39										0	0	836762	0	2	6			1						whiteFace6.bmp	0	17	834562	1000	800	1		3		mask.bmp	0	0	835962	300	No							0	0	835562	200	white	TrialProcWIT	2	0	0	836262	500	+	TrialListWIT										weapon1.bmp	weapon	1	6	0	0	835762	200	6	350	836112						4	2	39	1	6				Obs_Study2_gamecontroller	72	1	"<?xml version=""1.0""?>\n<Clock xmlns:dt=""urn:schemas-microsoft-com:datatypes""><Description dt:dt=""string"">E-Prime Primary Realtime Clock</Description><StartTime><Timestamp dt:dt=""int"">0</Timestamp><DateUtc dt:dt=""string"">2016-10-17T16:47:24Z</DateUtc></StartTime><FrequencyChanges><FrequencyChange><Frequency dt:dt=""r8"">3215429</Frequency><Timestamp dt:dt=""r8"">5032453178924</Timestamp><Current dt:dt=""r8"">0</Current><DateUtc dt:dt=""string"">2016-10-17T16:47:24Z</DateUtc></FrequencyChange></FrequencyChanges></Clock>\n"	Obs_Study2_gamecontroller-1-1	6	4031	2	17933	2	6998	5	6594	60.002	1.1.0.222	1	-1247883393	toolLeft	posLeft	Professional	2.0.10.356	2.0.10.356	10/17/16	10/17/16 16:47	11:47:25	2.0.10.252	1			WITproc	TaskList	1	2	1	5	6	2				WIT_1	1	0	711015	1000	no	experimentalBlockWIT	WITBlockList	2	1	2	40										0	0	839778	0	2	5			1						whiteFace7.bmp	1	16	837578	1000	1200	3		3		mask.bmp	0	0	838978	300	No							1	0	838578	200	white	TrialProcWIT	2	0	0	839278	500	+	TrialListWIT										tool3.bmp	tool	1	5	0	0	838778	200	5	414	839192		3				3	2	40		7				Obs_Study2_gamecontroller	72	1	"<?xml version=""1.0""?>\n<Clock xmlns:dt=""urn:schemas-microsoft-com:datatypes""><Description dt:dt=""string"">E-Prime Primary Realtime Clock</Description><StartTime><Timestamp dt:dt=""int"">0</Timestamp><DateUtc dt:dt=""string"">2016-10-17T16:47:24Z</DateUtc></StartTime><FrequencyChanges><FrequencyChange><Frequency dt:dt=""r8"">3215429</Frequency><Timestamp dt:dt=""r8"">5032453178924</Timestamp><Current dt:dt=""r8"">0</Current><DateUtc dt:dt=""string"">2016-10-17T16:47:24Z</DateUtc></FrequencyChange></FrequencyChanges></Clock>\n"	Obs_Study2_gamecontroller-1-1	6	4031	2	17933	2	6998	5	6594	60.002	1.1.0.222	1	-1247883393	toolLeft	posLeft	Professional	2.0.10.356	2.0.10.356	10/17/16	10/17/16 16:47	11:47:25	2.0.10.252	1			WITproc	TaskList	1	2	1	5	6	2				WIT_1	1	0	711015	1000	no	experimentalBlockWIT	WITBlockList	2	1	2	41										0	0	843195	0	2	5			1						whiteFace8.bmp	0	17	840995	1000	1000	2		3		mask.bmp	0	0	842395	300	No							0	0	841995	200	white	TrialProcWIT	1	0	0	842695	500	+	TrialListWIT										tool2.bmp	tool	0	5	0	0	842195	200	6	425	842620		2				3	2	41		8				Obs_Study2_gamecontroller	72	1	"<?xml version=""1.0""?>\n<Clock xmlns:dt=""urn:schemas-microsoft-com:datatypes""><Description dt:dt=""string"">E-Prime Primary Realtime Clock</Description><StartTime><Timestamp dt:dt=""int"">0</Timestamp><DateUtc dt:dt=""string"">2016-10-17T16:47:24Z</DateUtc></StartTime><FrequencyChanges><FrequencyChange><Frequency dt:dt=""r8"">3215429</Frequency><Timestamp dt:dt=""r8"">5032453178924</Timestamp><Current dt:dt=""r8"">0</Current><DateUtc dt:dt=""string"">2016-10-17T16:47:24Z</DateUtc></FrequencyChange></FrequencyChanges></Clock>\n"	Obs_Study2_gamecontroller-1-1	6	4031	2	17933	2	6998	5	6594	60.002	1.1.0.222	1	-1247883393	toolLeft	posLeft	Professional	2.0.10.356	2.0.10.356	10/17/16	10/17/16 16:47	11:47:25	2.0.10.252	1			WITproc	TaskList	1	2	1	5	6	2				WIT_1	1	0	711015	1000	no	experimentalBlockWIT	WITBlockList	2	1	2	42					3					0	0	846428	0	2	5			1						blackFace3.bmp	1	16	844211	1000	1200	3		3		mask.bmp	1	0	845611	317	No							1	0	845211	200	black	TrialProcWIT	3	0	17	845928	500	TOO SLOW	TrialListWIT										tool1.bmp	tool	0	5	0	0	845411	200		0	0		1				1	2	42						Obs_Study2_gamecontroller	72	1	"<?xml version=""1.0""?>\n<Clock xmlns:dt=""urn:schemas-microsoft-com:datatypes""><Description dt:dt=""string"">E-Prime Primary Realtime Clock</Description><StartTime><Timestamp dt:dt=""int"">0</Timestamp><DateUtc dt:dt=""string"">2016-10-17T16:47:24Z</DateUtc></StartTime><FrequencyChanges><FrequencyChange><Frequency dt:dt=""r8"">3215429</Frequency><Timestamp dt:dt=""r8"">5032453178924</Timestamp><Current dt:dt=""r8"">0</Current><DateUtc dt:dt=""string"">2016-10-17T16:47:24Z</DateUtc></FrequencyChange></FrequencyChanges></Clock>\n"	Obs_Study2_gamecontroller-1-1	6	4031	2	17933	2	6998	5	6594	60.002	1.1.0.222	1	-1247883393	toolLeft	posLeft	Professional	2.0.10.356	2.0.10.356	10/17/16	10/17/16 16:47	11:47:25	2.0.10.252	1			WITproc	TaskList	1	2	1	5	6	2				WIT_1	1	0	711015	1000	no	experimentalBlockWIT	WITBlockList	2	1	2	43					1					0	0	849844	0	2	5			1						blackFace1.bmp	0	17	847645	999	800	1		3		mask.bmp	0	1	849045	299	No							1	-1	848644	200	black	TrialProcWIT	2	0	-1	849344	500	+	TrialListWIT										tool2.bmp	tool	1	5	0	0	848844	201	5	476	849320		2				1	2	43						Obs_Study2_gamecontroller	72	1	"<?xml version=""1.0""?>\n<Clock xmlns:dt=""urn:schemas-microsoft-com:datatypes""><Description dt:dt=""string"">E-Prime Primary Realtime Clock</Description><StartTime><Timestamp dt:dt=""int"">0</Timestamp><DateUtc dt:dt=""string"">2016-10-17T16:47:24Z</DateUtc></StartTime><FrequencyChanges><FrequencyChange><Frequency dt:dt=""r8"">3215429</Frequency><Timestamp dt:dt=""r8"">5032453178924</Timestamp><Current dt:dt=""r8"">0</Current><DateUtc dt:dt=""string"">2016-10-17T16:47:24Z</DateUtc></FrequencyChange></FrequencyChanges></Clock>\n"	Obs_Study2_gamecontroller-1-1	6	4031	2	17933	2	6998	5	6594	60.002	1.1.0.222	1	-1247883393	toolLeft	posLeft	Professional	2.0.10.356	2.0.10.356	10/17/16	10/17/16 16:47	11:47:25	2.0.10.252	1			WITproc	TaskList	1	2	1	5	6	2				WIT_1	1	0	711015	1000	no	experimentalBlockWIT	WITBlockList	2	1	2	44										0	0	852861	0	2	5			1						whiteFace1.bmp	0	17	850661	1000	1000	2		3		mask.bmp	0	0	852061	300	No							0	0	851661	200	white	TrialProcWIT	2	0	0	852361	500	+	TrialListWIT										tool4.bmp	tool	1	5	0	0	851861	200	5	466	852327		4				3	2	44		1				Obs_Study2_gamecontroller	72	1	"<?xml version=""1.0""?>\n<Clock xmlns:dt=""urn:schemas-microsoft-com:datatypes""><Description dt:dt=""string"">E-Prime Primary Realtime Clock</Description><StartTime><Timestamp dt:dt=""int"">0</Timestamp><DateUtc dt:dt=""string"">2016-10-17T16:47:24Z</DateUtc></StartTime><FrequencyChanges><FrequencyChange><Frequency dt:dt=""r8"">3215429</Frequency><Timestamp dt:dt=""r8"">5032453178924</Timestamp><Current dt:dt=""r8"">0</Current><DateUtc dt:dt=""string"">2016-10-17T16:47:24Z</DateUtc></FrequencyChange></FrequencyChanges></Clock>\n"	Obs_Study2_gamecontroller-1-1	6	4031	2	17933	2	6998	5	6594	60.002	1.1.0.222	1	-1247883393	toolLeft	posLeft	Professional	2.0.10.356	2.0.10.356	10/17/16	10/17/16 16:47	11:47:25	2.0.10.252	1			WITproc	TaskList	1	2	1	5	6	2				WIT_1	1	0	711015	1000	no	experimentalBlockWIT	WITBlockList	2	1	2	45										0	0	856094	0	2	5			1						whiteFace2.bmp	0	17	853878	1000	1200	3		3		mask.bmp	0	0	855278	316	No							0	0	854878	200	white	TrialProcWIT	3	0	16	855594	500	TOO SLOW	TrialListWIT										tool1.bmp	tool	0	5	0	0	855078	200		0	0		1				3	2	45		2				Obs_Study2_gamecontroller	72	1	"<?xml version=""1.0""?>\n<Clock xmlns:dt=""urn:schemas-microsoft-com:datatypes""><Description dt:dt=""string"">E-Prime Primary Realtime Clock</Description><StartTime><Timestamp dt:dt=""int"">0</Timestamp><DateUtc dt:dt=""string"">2016-10-17T16:47:24Z</DateUtc></StartTime><FrequencyChanges><FrequencyChange><Frequency dt:dt=""r8"">3215429</Frequency><Timestamp dt:dt=""r8"">5032453178924</Timestamp><Current dt:dt=""r8"">0</Current><DateUtc dt:dt=""string"">2016-10-17T16:47:24Z</DateUtc></FrequencyChange></FrequencyChanges></Clock>\n"	Obs_Study2_gamecontroller-1-1	6	4031	2	17933	2	6998	5	6594	60.002	1.1.0.222	1	-1247883393	toolLeft	posLeft	Professional	2.0.10.356	2.0.10.356	10/17/16	10/17/16 16:47	11:47:25	2.0.10.252	1			WITproc	TaskList	1	2	1	5	6	2				WIT_1	1	0	711015	1000	no	experimentalBlockWIT	WITBlockList	2	1	2	46					5					0	0	859511	0	2	5			1						blackFace5.bmp	0	17	857311	1000	800	1		3		mask.bmp	0	0	858711	300	No							0	0	858311	200	black	TrialProcWIT	2	0	0	859011	500	+	TrialListWIT										tool3.bmp	tool	1	5	0	0	858511	200	5	400	858911		3				1	2	46						Obs_Study2_gamecontroller	72	1	"<?xml version=""1.0""?>\n<Clock xmlns:dt=""urn:schemas-microsoft-com:datatypes""><Description dt:dt=""string"">E-Prime Primary Realtime Clock</Description><StartTime><Timestamp dt:dt=""int"">0</Timestamp><DateUtc dt:dt=""string"">2016-10-17T16:47:24Z</DateUtc></StartTime><FrequencyChanges><FrequencyChange><Frequency dt:dt=""r8"">3215429</Frequency><Timestamp dt:dt=""r8"">5032453178924</Timestamp><Current dt:dt=""r8"">0</Current><DateUtc dt:dt=""string"">2016-10-17T16:47:24Z</DateUtc></FrequencyChange></FrequencyChanges></Clock>\n"	Obs_Study2_gamecontroller-1-1	6	4031	2	17933	2	6998	5	6594	60.002	1.1.0.222	1	-1247883393	toolLeft	posLeft	Professional	2.0.10.356	2.0.10.356	10/17/16	10/17/16 16:47	11:47:25	2.0.10.252	1			WITproc	TaskList	1	2	1	5	6	2				WIT_1	1	0	711015	1000	no	experimentalBlockWIT	WITBlockList	2	1	2	47					4					0	0	862527	0	2	6			1						blackFace4.bmp	1	16	860327	1000	1000	2		3		mask.bmp	1	0	861727	300	No							1	0	861327	200	black	TrialProcWIT	2	0	0	862027	500	+	TrialListWIT										weapon3.bmp	weapon	1	6	0	0	861527	200	6	380	861907						2	2	47	3					Obs_Study2_gamecontroller	72	1	"<?xml version=""1.0""?>\n<Clock xmlns:dt=""urn:schemas-microsoft-com:datatypes""><Description dt:dt=""string"">E-Prime Primary Realtime Clock</Description><StartTime><Timestamp dt:dt=""int"">0</Timestamp><DateUtc dt:dt=""string"">2016-10-17T16:47:24Z</DateUtc></StartTime><FrequencyChanges><FrequencyChange><Frequency dt:dt=""r8"">3215429</Frequency><Timestamp dt:dt=""r8"">5032453178924</Timestamp><Current dt:dt=""r8"">0</Current><DateUtc dt:dt=""string"">2016-10-17T16:47:24Z</DateUtc></FrequencyChange></FrequencyChanges></Clock>\n"	Obs_Study2_gamecontroller-1-1	6	4031	2	17933	2	6998	5	6594	60.002	1.1.0.222	1	-1247883393	toolLeft	posLeft	Professional	2.0.10.356	2.0.10.356	10/17/16	10/17/16 16:47	11:47:25	2.0.10.252	1			WITproc	TaskList	1	2	1	5	6	2				WIT_1	1	0	711015	1000	no	experimentalBlockWIT	WITBlockList	2	1	2	48					7					0	7	871844	0	2	6			1						blackFace7.bmp	0	17	863544	1000	1000	2		3		mask.bmp	0	0	864944	300	No							0	0	864544	200	black	TrialProcWIT	2	0	0	865244	500	+	TrialListWIT										weapon4.bmp	weapon	1	6	0	0	864744	200	6	451	865195						2	2	48	4					Obs_Study2_gamecontroller	72	1	"<?xml version=""1.0""?>\n<Clock xmlns:dt=""urn:schemas-microsoft-com:datatypes""><Description dt:dt=""string"">E-Prime Primary Realtime Clock</Description><StartTime><Timestamp dt:dt=""int"">0</Timestamp><DateUtc dt:dt=""string"">2016-10-17T16:47:24Z</DateUtc></StartTime><FrequencyChanges><FrequencyChange><Frequency dt:dt=""r8"">3215429</Frequency><Timestamp dt:dt=""r8"">5032453178924</Timestamp><Current dt:dt=""r8"">0</Current><DateUtc dt:dt=""string"">2016-10-17T16:47:24Z</DateUtc></FrequencyChange></FrequencyChanges></Clock>\n"	Obs_Study2_gamecontroller-1-1	6	4031	2	17933	2	6998	5	6594	60.002	1.1.0.222	1	-1247883393	toolLeft	posLeft	Professional	2.0.10.356	2.0.10.356	10/17/16	10/17/16 16:47	11:47:25	2.0.10.252	1			WITproc	TaskList	1	2	1	5	6	2				WIT_1	1	0	711015	1000	no	experimentalBlockWIT	WITBlockList	2	1	2	49					8					0	0	875060	0	2	6			1						blackFace8.bmp	1	16	872860	1000	1200	3		3		mask.bmp	1	0	874260	300	No							1	0	873860	200	black	TrialProcWIT	2	0	0	874560	500	+	TrialListWIT										weapon2.bmp	weapon	1	6	0	0	874060	200	6	435	874495						2	2	49	2					Obs_Study2_gamecontroller	72	1	"<?xml version=""1.0""?>\n<Clock xmlns:dt=""urn:schemas-microsoft-com:datatypes""><Description dt:dt=""string"">E-Prime Primary Realtime Clock</Description><StartTime><Timestamp dt:dt=""int"">0</Timestamp><DateUtc dt:dt=""string"">2016-10-17T16:47:24Z</DateUtc></StartTime><FrequencyChanges><FrequencyChange><Frequency dt:dt=""r8"">3215429</Frequency><Timestamp dt:dt=""r8"">5032453178924</Timestamp><Current dt:dt=""r8"">0</Current><DateUtc dt:dt=""string"">2016-10-17T16:47:24Z</DateUtc></FrequencyChange></FrequencyChanges></Clock>\n"	Obs_Study2_gamecontroller-1-1	6	4031	2	17933	2	6998	5	6594	60.002	1.1.0.222	1	-1247883393	toolLeft	posLeft	Professional	2.0.10.356	2.0.10.356	10/17/16	10/17/16 16:47	11:47:25	2.0.10.252	1			WITproc	TaskList	1	2	1	5	6	2				WIT_1	1	0	711015	1000	no	experimentalBlockWIT	WITBlockList	2	1	2	50					2					0	0	878477	0	2	5			1						blackFace2.bmp	0	17	876277	1000	800	1		3		mask.bmp	1	0	877677	300	No							0	0	877277	200	black	TrialProcWIT	2	0	0	877977	500	+	TrialListWIT										tool1.bmp	tool	1	5	0	0	877477	200	5	450	877927		1				1	2	50						Obs_Study2_gamecontroller	72	1	"<?xml version=""1.0""?>\n<Clock xmlns:dt=""urn:schemas-microsoft-com:datatypes""><Description dt:dt=""string"">E-Prime Primary Realtime Clock</Description><StartTime><Timestamp dt:dt=""int"">0</Timestamp><DateUtc dt:dt=""string"">2016-10-17T16:47:24Z</DateUtc></StartTime><FrequencyChanges><FrequencyChange><Frequency dt:dt=""r8"">3215429</Frequency><Timestamp dt:dt=""r8"">5032453178924</Timestamp><Current dt:dt=""r8"">0</Current><DateUtc dt:dt=""string"">2016-10-17T16:47:24Z</DateUtc></FrequencyChange></FrequencyChanges></Clock>\n"	Obs_Study2_gamecontroller-1-1	6	4031	2	17933	2	6998	5	6594	60.002	1.1.0.222	1	-1247883393	toolLeft	posLeft	Professional	2.0.10.356	2.0.10.356	10/17/16	10/17/16 16:47	11:47:25	2.0.10.252	1			WITproc	TaskList	1	2	1	5	6	2				WIT_1	1	0	711015	1000	no	experimentalBlockWIT	WITBlockList	2	1	2	51					5					0	0	881510	0	2	6			1						blackFace5.bmp	0	17	879294	1000	800	1		3		mask.bmp	1	0	880694	316	No							0	0	880294	200	black	TrialProcWIT	3	0	16	881010	500	TOO SLOW	TrialListWIT										weapon4.bmp	weapon	0	6	0	0	880494	200		0	0						2	2	51	4					Obs_Study2_gamecontroller	72	1	"<?xml version=""1.0""?>\n<Clock xmlns:dt=""urn:schemas-microsoft-com:datatypes""><Description dt:dt=""string"">E-Prime Primary Realtime Clock</Description><StartTime><Timestamp dt:dt=""int"">0</Timestamp><DateUtc dt:dt=""string"">2016-10-17T16:47:24Z</DateUtc></StartTime><FrequencyChanges><FrequencyChange><Frequency dt:dt=""r8"">3215429</Frequency><Timestamp dt:dt=""r8"">5032453178924</Timestamp><Current dt:dt=""r8"">0</Current><DateUtc dt:dt=""string"">2016-10-17T16:47:24Z</DateUtc></FrequencyChange></FrequencyChanges></Clock>\n"	Obs_Study2_gamecontroller-1-1	6	4031	2	17933	2	6998	5	6594	60.002	1.1.0.222	1	-1247883393	toolLeft	posLeft	Professional	2.0.10.356	2.0.10.356	10/17/16	10/17/16 16:47	11:47:25	2.0.10.252	1			WITproc	TaskList	1	2	1	5	6	2				WIT_1	1	0	711015	1000	no	experimentalBlockWIT	WITBlockList	2	1	2	52					3					0	0	884527	0	2	5			1						blackFace3.bmp	0	17	882327	1000	1200	3		3		mask.bmp	0	0	883727	300	No							0	0	883327	200	black	TrialProcWIT	2	0	0	884027	500	+	TrialListWIT										tool4.bmp	tool	1	5	0	0	883527	200	5	423	883950		4				1	2	52						Obs_Study2_gamecontroller	72	1	"<?xml version=""1.0""?>\n<Clock xmlns:dt=""urn:schemas-microsoft-com:datatypes""><Description dt:dt=""string"">E-Prime Primary Realtime Clock</Description><StartTime><Timestamp dt:dt=""int"">0</Timestamp><DateUtc dt:dt=""string"">2016-10-17T16:47:24Z</DateUtc></StartTime><FrequencyChanges><FrequencyChange><Frequency dt:dt=""r8"">3215429</Frequency><Timestamp dt:dt=""r8"">5032453178924</Timestamp><Current dt:dt=""r8"">0</Current><DateUtc dt:dt=""string"">2016-10-17T16:47:24Z</DateUtc></FrequencyChange></FrequencyChanges></Clock>\n"	Obs_Study2_gamecontroller-1-1	6	4031	2	17933	2	6998	5	6594	60.002	1.1.0.222	1	-1247883393	toolLeft	posLeft	Professional	2.0.10.356	2.0.10.356	10/17/16	10/17/16 16:47	11:47:25	2.0.10.252	1			WITproc	TaskList	1	2	1	5	6	2				WIT_1	1	0	711015	1000	no	experimentalBlockWIT	WITBlockList	2	1	2	53										0	0	887960	0	2	6			1						whiteFace3.bmp	1	16	885743	1000	1000	2		3		mask.bmp	1	0	887143	317	No							1	0	886743	200	white	TrialProcWIT	3	0	17	887460	500	TOO SLOW	TrialListWIT										weapon1.bmp	weapon	0	6	0	0	886943	200		0	0						4	2	53	1	3				Obs_Study2_gamecontroller	72	1	"<?xml version=""1.0""?>\n<Clock xmlns:dt=""urn:schemas-microsoft-com:datatypes""><Description dt:dt=""string"">E-Prime Primary Realtime Clock</Description><StartTime><Timestamp dt:dt=""int"">0</Timestamp><DateUtc dt:dt=""string"">2016-10-17T16:47:24Z</DateUtc></StartTime><FrequencyChanges><FrequencyChange><Frequency dt:dt=""r8"">3215429</Frequency><Timestamp dt:dt=""r8"">5032453178924</Timestamp><Current dt:dt=""r8"">0</Current><DateUtc dt:dt=""string"">2016-10-17T16:47:24Z</DateUtc></FrequencyChange></FrequencyChanges></Clock>\n"	Obs_Study2_gamecontroller-1-1	6	4031	2	17933	2	6998	5	6594	60.002	1.1.0.222	1	-1247883393	toolLeft	posLeft	Professional	2.0.10.356	2.0.10.356	10/17/16	10/17/16 16:47	11:47:25	2.0.10.252	1			WITproc	TaskList	1	2	1	5	6	2				WIT_1	1	0	711015	1000	no	experimentalBlockWIT	WITBlockList	2	1	2	54					1					0	0	891193	0	2	5			1						blackFace1.bmp	0	17	888977	1000	1200	3		3		mask.bmp	1	0	890377	316	No							0	0	889977	200	black	TrialProcWIT	3	0	16	890693	500	TOO SLOW	TrialListWIT										tool3.bmp	tool	0	5	0	0	890177	200		0	0		3				1	2	54						Obs_Study2_gamecontroller	72	1	"<?xml version=""1.0""?>\n<Clock xmlns:dt=""urn:schemas-microsoft-com:datatypes""><Description dt:dt=""string"">E-Prime Primary Realtime Clock</Description><StartTime><Timestamp dt:dt=""int"">0</Timestamp><DateUtc dt:dt=""string"">2016-10-17T16:47:24Z</DateUtc></StartTime><FrequencyChanges><FrequencyChange><Frequency dt:dt=""r8"">3215429</Frequency><Timestamp dt:dt=""r8"">5032453178924</Timestamp><Current dt:dt=""r8"">0</Current><DateUtc dt:dt=""string"">2016-10-17T16:47:24Z</DateUtc></FrequencyChange></FrequencyChanges></Clock>\n"	Obs_Study2_gamecontroller-1-1	6	4031	2	17933	2	6998	5	6594	60.002	1.1.0.222	1	-1247883393	toolLeft	posLeft	Professional	2.0.10.356	2.0.10.356	10/17/16	10/17/16 16:47	11:47:25	2.0.10.252	1			WITproc	TaskList	1	2	1	5	6	2				WIT_1	1	0	711015	1000	no	experimentalBlockWIT	WITBlockList	2	1	2	55					6					0	0	894610	0	2	6			1						blackFace6.bmp	0	17	892410	1000	800	1		3		mask.bmp	0	0	893810	300	No							0	0	893410	200	black	TrialProcWIT	2	0	0	894110	500	+	TrialListWIT										weapon3.bmp	weapon	1	6	0	0	893610	200	6	492	894102						2	2	55	3					Obs_Study2_gamecontroller	72	1	"<?xml version=""1.0""?>\n<Clock xmlns:dt=""urn:schemas-microsoft-com:datatypes""><Description dt:dt=""string"">E-Prime Primary Realtime Clock</Description><StartTime><Timestamp dt:dt=""int"">0</Timestamp><DateUtc dt:dt=""string"">2016-10-17T16:47:24Z</DateUtc></StartTime><FrequencyChanges><FrequencyChange><Frequency dt:dt=""r8"">3215429</Frequency><Timestamp dt:dt=""r8"">5032453178924</Timestamp><Current dt:dt=""r8"">0</Current><DateUtc dt:dt=""string"">2016-10-17T16:47:24Z</DateUtc></FrequencyChange></FrequencyChanges></Clock>\n"	Obs_Study2_gamecontroller-1-1	6	4031	2	17933	2	6998	5	6594	60.002	1.1.0.222	1	-1247883393	toolLeft	posLeft	Professional	2.0.10.356	2.0.10.356	10/17/16	10/17/16 16:47	11:47:25	2.0.10.252	1			WITproc	TaskList	1	2	1	5	6	2				WIT_1	1	0	711015	1000	no	experimentalBlockWIT	WITBlockList	2	1	2	56										0	0	897626	0	2	6			1						whiteFace4.bmp	1	16	895426	1000	1000	2		3		mask.bmp	1	0	896826	300	No							1	0	896426	200	white	TrialProcWIT	2	0	0	897126	500	+	TrialListWIT										weapon4.bmp	weapon	1	6	0	0	896626	200	6	412	897038						4	2	56	4	4				Obs_Study2_gamecontroller	72	1	"<?xml version=""1.0""?>\n<Clock xmlns:dt=""urn:schemas-microsoft-com:datatypes""><Description dt:dt=""string"">E-Prime Primary Realtime Clock</Description><StartTime><Timestamp dt:dt=""int"">0</Timestamp><DateUtc dt:dt=""string"">2016-10-17T16:47:24Z</DateUtc></StartTime><FrequencyChanges><FrequencyChange><Frequency dt:dt=""r8"">3215429</Frequency><Timestamp dt:dt=""r8"">5032453178924</Timestamp><Current dt:dt=""r8"">0</Current><DateUtc dt:dt=""string"">2016-10-17T16:47:24Z</DateUtc></FrequencyChange></FrequencyChanges></Clock>\n"	Obs_Study2_gamecontroller-1-1	6	4031	2	17933	2	6998	5	6594	60.002	1.1.0.222	1	-1247883393	toolLeft	posLeft	Professional	2.0.10.356	2.0.10.356	10/17/16	10/17/16 16:47	11:47:25	2.0.10.252	1			WITproc	TaskList	1	2	1	5	6	2				WIT_1	1	0	711015	1000	no	experimentalBlockWIT	WITBlockList	2	1	2	57					8					0	0	900843	0	2	5			1						blackFace8.bmp	0	17	898643	1000	800	1		3		mask.bmp	0	0	900043	300	No							0	0	899643	200	black	TrialProcWIT	2	0	0	900343	500	+	TrialListWIT										tool2.bmp	tool	1	5	0	0	899843	200	5	463	900306		2				1	2	57						Obs_Study2_gamecontroller	72	1	"<?xml version=""1.0""?>\n<Clock xmlns:dt=""urn:schemas-microsoft-com:datatypes""><Description dt:dt=""string"">E-Prime Primary Realtime Clock</Description><StartTime><Timestamp dt:dt=""int"">0</Timestamp><DateUtc dt:dt=""string"">2016-10-17T16:47:24Z</DateUtc></StartTime><FrequencyChanges><FrequencyChange><Frequency dt:dt=""r8"">3215429</Frequency><Timestamp dt:dt=""r8"">5032453178924</Timestamp><Current dt:dt=""r8"">0</Current><DateUtc dt:dt=""string"">2016-10-17T16:47:24Z</DateUtc></FrequencyChange></FrequencyChanges></Clock>\n"	Obs_Study2_gamecontroller-1-1	6	4031	2	17933	2	6998	5	6594	60.002	1.1.0.222	1	-1247883393	toolLeft	posLeft	Professional	2.0.10.356	2.0.10.356	10/17/16	10/17/16 16:47	11:47:25	2.0.10.252	1			WITproc	TaskList	1	2	1	5	6	2				WIT_1	1	0	711015	1000	no	experimentalBlockWIT	WITBlockList	2	1	2	58										0	0	903859	0	2	5			1						whiteFace5.bmp	0	17	901660	999	1200	3		3		mask.bmp	1	0	903059	300	No							1	-1	902659	200	white	TrialProcWIT	2	0	0	903359	500	+	TrialListWIT										tool4.bmp	tool	1	5	0	0	902859	200	5	455	903314		4				3	2	58		5				Obs_Study2_gamecontroller	72	1	"<?xml version=""1.0""?>\n<Clock xmlns:dt=""urn:schemas-microsoft-com:datatypes""><Description dt:dt=""string"">E-Prime Primary Realtime Clock</Description><StartTime><Timestamp dt:dt=""int"">0</Timestamp><DateUtc dt:dt=""string"">2016-10-17T16:47:24Z</DateUtc></StartTime><FrequencyChanges><FrequencyChange><Frequency dt:dt=""r8"">3215429</Frequency><Timestamp dt:dt=""r8"">5032453178924</Timestamp><Current dt:dt=""r8"">0</Current><DateUtc dt:dt=""string"">2016-10-17T16:47:24Z</DateUtc></FrequencyChange></FrequencyChanges></Clock>\n"	Obs_Study2_gamecontroller-1-1	6	4031	2	17933	2	6998	5	6594	60.002	1.1.0.222	1	-1247883393	toolLeft	posLeft	Professional	2.0.10.356	2.0.10.356	10/17/16	10/17/16 16:47	11:47:25	2.0.10.252	1			WITproc	TaskList	1	2	1	5	6	2				WIT_1	1	0	711015	1000	no	experimentalBlockWIT	WITBlockList	2	1	2	59					7					0	0	907293	0	2	6			1						blackFace7.bmp	0	17	905076	1000	1000	2		3		mask.bmp	0	0	906476	317	No							0	0	906076	200	black	TrialProcWIT	3	0	17	906793	500	TOO SLOW	TrialListWIT										weapon1.bmp	weapon	0	6	0	0	906276	200		0	0						2	2	59	1					Obs_Study2_gamecontroller	72	1	"<?xml version=""1.0""?>\n<Clock xmlns:dt=""urn:schemas-microsoft-com:datatypes""><Description dt:dt=""string"">E-Prime Primary Realtime Clock</Description><StartTime><Timestamp dt:dt=""int"">0</Timestamp><DateUtc dt:dt=""string"">2016-10-17T16:47:24Z</DateUtc></StartTime><FrequencyChanges><FrequencyChange><Frequency dt:dt=""r8"">3215429</Frequency><Timestamp dt:dt=""r8"">5032453178924</Timestamp><Current dt:dt=""r8"">0</Current><DateUtc dt:dt=""string"">2016-10-17T16:47:24Z</DateUtc></FrequencyChange></FrequencyChanges></Clock>\n"	Obs_Study2_gamecontroller-1-1	6	4031	2	17933	2	6998	5	6594	60.002	1.1.0.222	1	-1247883393	toolLeft	posLeft	Professional	2.0.10.356	2.0.10.356	10/17/16	10/17/16 16:47	11:47:25	2.0.10.252	1			WITproc	TaskList	1	2	1	5	6	2				WIT_1	1	0	711015	1000	no	experimentalBlockWIT	WITBlockList	2	1	2	60										0	0	910509	0	2	6			1						whiteFace6.bmp	1	16	908309	1000	800	1		3		mask.bmp	1	0	909709	300	No							1	0	909309	200	white	TrialProcWIT	2	0	0	910009	500	+	TrialListWIT										weapon2.bmp	weapon	1	6	0	0	909509	200	6	481	909990						4	2	60	2	6				Obs_Study2_gamecontroller	72	1	"<?xml version=""1.0""?>\n<Clock xmlns:dt=""urn:schemas-microsoft-com:datatypes""><Description dt:dt=""string"">E-Prime Primary Realtime Clock</Description><StartTime><Timestamp dt:dt=""int"">0</Timestamp><DateUtc dt:dt=""string"">2016-10-17T16:47:24Z</DateUtc></StartTime><FrequencyChanges><FrequencyChange><Frequency dt:dt=""r8"">3215429</Frequency><Timestamp dt:dt=""r8"">5032453178924</Timestamp><Current dt:dt=""r8"">0</Current><DateUtc dt:dt=""string"">2016-10-17T16:47:24Z</DateUtc></FrequencyChange></FrequencyChanges></Clock>\n"	Obs_Study2_gamecontroller-1-1	6	4031	2	17933	2	6998	5	6594	60.002	1.1.0.222	1	-1247883393	toolLeft	posLeft	Professional	2.0.10.356	2.0.10.356	10/17/16	10/17/16 16:47	11:47:25	2.0.10.252	1			WITproc	TaskList	1	2	1	5	6	2				WIT_1	1	0	711015	1000	no	experimentalBlockWIT	WITBlockList	2	1	2	61					4					0	0	913526	0	2	5			1						blackFace4.bmp	0	17	911326	1000	1000	2		3		mask.bmp	1	0	912726	300	No							0	0	912326	200	black	TrialProcWIT	2	0	0	913026	500	+	TrialListWIT										tool2.bmp	tool	1	5	0	0	912526	200	5	360	912886		2				1	2	61						Obs_Study2_gamecontroller	72	1	"<?xml version=""1.0""?>\n<Clock xmlns:dt=""urn:schemas-microsoft-com:datatypes""><Description dt:dt=""string"">E-Prime Primary Realtime Clock</Description><StartTime><Timestamp dt:dt=""int"">0</Timestamp><DateUtc dt:dt=""string"">2016-10-17T16:47:24Z</DateUtc></StartTime><FrequencyChanges><FrequencyChange><Frequency dt:dt=""r8"">3215429</Frequency><Timestamp dt:dt=""r8"">5032453178924</Timestamp><Current dt:dt=""r8"">0</Current><DateUtc dt:dt=""string"">2016-10-17T16:47:24Z</DateUtc></FrequencyChange></FrequencyChanges></Clock>\n"	Obs_Study2_gamecontroller-1-1	6	4031	2	17933	2	6998	5	6594	60.002	1.1.0.222	1	-1247883393	toolLeft	posLeft	Professional	2.0.10.356	2.0.10.356	10/17/16	10/17/16 16:47	11:47:25	2.0.10.252	1			WITproc	TaskList	1	2	1	5	6	2				WIT_1	1	0	711015	1000	no	experimentalBlockWIT	WITBlockList	2	1	2	62										0	0	916742	0	2	5			1						whiteFace7.bmp	1	16	914542	1000	1200	3		3		mask.bmp	1	0	915942	300	No							1	0	915542	200	white	TrialProcWIT	2	0	0	916242	500	+	TrialListWIT										tool3.bmp	tool	1	5	0	0	915742	200	5	451	916193		3				3	2	62		7				Obs_Study2_gamecontroller	72	1	"<?xml version=""1.0""?>\n<Clock xmlns:dt=""urn:schemas-microsoft-com:datatypes""><Description dt:dt=""string"">E-Prime Primary Realtime Clock</Description><StartTime><Timestamp dt:dt=""int"">0</Timestamp><DateUtc dt:dt=""string"">2016-10-17T16:47:24Z</DateUtc></StartTime><FrequencyChanges><FrequencyChange><Frequency dt:dt=""r8"">3215429</Frequency><Timestamp dt:dt=""r8"">5032453178924</Timestamp><Current dt:dt=""r8"">0</Current><DateUtc dt:dt=""string"">2016-10-17T16:47:24Z</DateUtc></FrequencyChange></FrequencyChanges></Clock>\n"	Obs_Study2_gamecontroller-1-1	6	4031	2	17933	2	6998	5	6594	60.002	1.1.0.222	1	-1247883393	toolLeft	posLeft	Professional	2.0.10.356	2.0.10.356	10/17/16	10/17/16 16:47	11:47:25	2.0.10.252	1			WITproc	TaskList	1	2	1	5	6	2				WIT_1	1	0	711015	1000	no	experimentalBlockWIT	WITBlockList	2	1	2	63					2					0	0	920159	0	2	6			1						blackFace2.bmp	0	17	917959	1000	1000	2		3		mask.bmp	0	0	919359	300	No							0	0	918959	200	black	TrialProcWIT	2	0	0	919659	500	+	TrialListWIT										weapon3.bmp	weapon	1	6	0	0	919159	200	6	366	919525						2	2	63	3					Obs_Study2_gamecontroller	72	1	"<?xml version=""1.0""?>\n<Clock xmlns:dt=""urn:schemas-microsoft-com:datatypes""><Description dt:dt=""string"">E-Prime Primary Realtime Clock</Description><StartTime><Timestamp dt:dt=""int"">0</Timestamp><DateUtc dt:dt=""string"">2016-10-17T16:47:24Z</DateUtc></StartTime><FrequencyChanges><FrequencyChange><Frequency dt:dt=""r8"">3215429</Frequency><Timestamp dt:dt=""r8"">5032453178924</Timestamp><Current dt:dt=""r8"">0</Current><DateUtc dt:dt=""string"">2016-10-17T16:47:24Z</DateUtc></FrequencyChange></FrequencyChanges></Clock>\n"	Obs_Study2_gamecontroller-1-1	6	4031	2	17933	2	6998	5	6594	60.002	1.1.0.222	1	-1247883393	toolLeft	posLeft	Professional	2.0.10.356	2.0.10.356	10/17/16	10/17/16 16:47	11:47:25	2.0.10.252	1			WITproc	TaskList	1	2	1	5	6	2				WIT_1	1	0	711015	1000	no	experimentalBlockWIT	WITBlockList	2	1	2	64										0	0	923392	0	2	5			1						whiteFace8.bmp	0	17	921176	1000	1200	3		3		mask.bmp	0	0	922576	316	No							0	0	922176	200	white	TrialProcWIT	3	0	16	922892	500	TOO SLOW	TrialListWIT										tool1.bmp	tool	0	5	0	0	922376	200		0	0		1				3	2	64		8				Obs_Study2_gamecontroller	72	1	"<?xml version=""1.0""?>\n<Clock xmlns:dt=""urn:schemas-microsoft-com:datatypes""><Description dt:dt=""string"">E-Prime Primary Realtime Clock</Description><StartTime><Timestamp dt:dt=""int"">0</Timestamp><DateUtc dt:dt=""string"">2016-10-17T16:47:24Z</DateUtc></StartTime><FrequencyChanges><FrequencyChange><Frequency dt:dt=""r8"">3215429</Frequency><Timestamp dt:dt=""r8"">5032453178924</Timestamp><Current dt:dt=""r8"">0</Current><DateUtc dt:dt=""string"">2016-10-17T16:47:24Z</DateUtc></FrequencyChange></FrequencyChanges></Clock>\n"	Obs_Study2_gamecontroller-1-1	6	4031	2	17933	2	6998	5	6594	60.002	1.1.0.222	1	-1247883393	toolLeft	posLeft	Professional	2.0.10.356	2.0.10.356	10/17/16	10/17/16 16:47	11:47:25	2.0.10.252	1			WITproc	TaskList	1	2	1	5	6	2				WIT_1	1	0	711015	1000	no	experimentalBlockWIT	WITBlockList	2	1	2	65										0	0	926809	0	2	6			1						whiteFace1.bmp	0	17	924609	1000	800	1		3		mask.bmp	1	0	926009	300	No							0	0	925609	200	white	TrialProcWIT	2	0	0	926309	500	+	TrialListWIT										weapon1.bmp	weapon	1	6	0	0	925809	200	6	484	926293						4	3	65	1	1				Obs_Study2_gamecontroller	72	1	"<?xml version=""1.0""?>\n<Clock xmlns:dt=""urn:schemas-microsoft-com:datatypes""><Description dt:dt=""string"">E-Prime Primary Realtime Clock</Description><StartTime><Timestamp dt:dt=""int"">0</Timestamp><DateUtc dt:dt=""string"">2016-10-17T16:47:24Z</DateUtc></StartTime><FrequencyChanges><FrequencyChange><Frequency dt:dt=""r8"">3215429</Frequency><Timestamp dt:dt=""r8"">5032453178924</Timestamp><Current dt:dt=""r8"">0</Current><DateUtc dt:dt=""string"">2016-10-17T16:47:24Z</DateUtc></FrequencyChange></FrequencyChanges></Clock>\n"	Obs_Study2_gamecontroller-1-1	6	4031	2	17933	2	6998	5	6594	60.002	1.1.0.222	1	-1247883393	toolLeft	posLeft	Professional	2.0.10.356	2.0.10.356	10/17/16	10/17/16 16:47	11:47:25	2.0.10.252	1			WITproc	TaskList	1	2	1	5	6	2				WIT_1	1	0	711015	1000	no	experimentalBlockWIT	WITBlockList	2	1	2	66										0	0	929825	0	2	6			1						whiteFace2.bmp	1	16	927625	1000	1000	2		3		mask.bmp	1	0	929025	300	No							1	0	928625	200	white	TrialProcWIT	2	0	0	929325	500	+	TrialListWIT										weapon2.bmp	weapon	1	6	0	0	928825	200	6	464	929289						4	3	66	2	2				Obs_Study2_gamecontroller	72	1	"<?xml version=""1.0""?>\n<Clock xmlns:dt=""urn:schemas-microsoft-com:datatypes""><Description dt:dt=""string"">E-Prime Primary Realtime Clock</Description><StartTime><Timestamp dt:dt=""int"">0</Timestamp><DateUtc dt:dt=""string"">2016-10-17T16:47:24Z</DateUtc></StartTime><FrequencyChanges><FrequencyChange><Frequency dt:dt=""r8"">3215429</Frequency><Timestamp dt:dt=""r8"">5032453178924</Timestamp><Current dt:dt=""r8"">0</Current><DateUtc dt:dt=""string"">2016-10-17T16:47:24Z</DateUtc></FrequencyChange></FrequencyChanges></Clock>\n"	Obs_Study2_gamecontroller-1-1	6	4031	2	17933	2	6998	5	6594	60.002	1.1.0.222	1	-1247883393	toolLeft	posLeft	Professional	2.0.10.356	2.0.10.356	10/17/16	10/17/16 16:47	11:47:25	2.0.10.252	1			WITproc	TaskList	1	2	1	5	6	2				WIT_1	1	0	711015	1000	no	experimentalBlockWIT	WITBlockList	2	1	2	67										0	0	933042	0	2	5			1						whiteFace3.bmp	0	17	930842	1000	800	1		3		mask.bmp	1	0	932242	300	No							0	0	931842	200	white	TrialProcWIT	2	0	0	932542	500	+	TrialListWIT										tool2.bmp	tool	1	5	0	0	932042	200	5	451	932493		2				3	3	67		3				Obs_Study2_gamecontroller	72	1	"<?xml version=""1.0""?>\n<Clock xmlns:dt=""urn:schemas-microsoft-com:datatypes""><Description dt:dt=""string"">E-Prime Primary Realtime Clock</Description><StartTime><Timestamp dt:dt=""int"">0</Timestamp><DateUtc dt:dt=""string"">2016-10-17T16:47:24Z</DateUtc></StartTime><FrequencyChanges><FrequencyChange><Frequency dt:dt=""r8"">3215429</Frequency><Timestamp dt:dt=""r8"">5032453178924</Timestamp><Current dt:dt=""r8"">0</Current><DateUtc dt:dt=""string"">2016-10-17T16:47:24Z</DateUtc></FrequencyChange></FrequencyChanges></Clock>\n"	Obs_Study2_gamecontroller-1-1	6	4031	2	17933	2	6998	5	6594	60.002	1.1.0.222	1	-1247883393	toolLeft	posLeft	Professional	2.0.10.356	2.0.10.356	10/17/16	10/17/16 16:47	11:47:25	2.0.10.252	1			WITproc	TaskList	1	2	1	5	6	2				WIT_1	1	0	711015	1000	no	experimentalBlockWIT	WITBlockList	2	1	2	68										0	0	936058	0	2	6			1						whiteFace4.bmp	0	17	933859	999	1200	3		3		mask.bmp	1	0	935258	300	No							1	-1	934858	200	white	TrialProcWIT	2	0	0	935558	500	+	TrialListWIT										weapon3.bmp	weapon	1	6	0	0	935058	200	6	403	935461						4	3	68	3	4				Obs_Study2_gamecontroller	72	1	"<?xml version=""1.0""?>\n<Clock xmlns:dt=""urn:schemas-microsoft-com:datatypes""><Description dt:dt=""string"">E-Prime Primary Realtime Clock</Description><StartTime><Timestamp dt:dt=""int"">0</Timestamp><DateUtc dt:dt=""string"">2016-10-17T16:47:24Z</DateUtc></StartTime><FrequencyChanges><FrequencyChange><Frequency dt:dt=""r8"">3215429</Frequency><Timestamp dt:dt=""r8"">5032453178924</Timestamp><Current dt:dt=""r8"">0</Current><DateUtc dt:dt=""string"">2016-10-17T16:47:24Z</DateUtc></FrequencyChange></FrequencyChanges></Clock>\n"	Obs_Study2_gamecontroller-1-1	6	4031	2	17933	2	6998	5	6594	60.002	1.1.0.222	1	-1247883393	toolLeft	posLeft	Professional	2.0.10.356	2.0.10.356	10/17/16	10/17/16 16:47	11:47:25	2.0.10.252	1			WITproc	TaskList	1	2	1	5	6	2				WIT_1	1	0	711015	1000	no	experimentalBlockWIT	WITBlockList	2	1	2	69					4					0	0	939475	0	2	6			1						blackFace4.bmp	0	17	937275	1000	1000	2		3		mask.bmp	0	0	938675	300	No							0	0	938275	200	black	TrialProcWIT	2	0	0	938975	500	+	TrialListWIT										weapon4.bmp	weapon	1	6	0	0	938475	200	6	462	938937						2	3	69	4					Obs_Study2_gamecontroller	72	1	"<?xml version=""1.0""?>\n<Clock xmlns:dt=""urn:schemas-microsoft-com:datatypes""><Description dt:dt=""string"">E-Prime Primary Realtime Clock</Description><StartTime><Timestamp dt:dt=""int"">0</Timestamp><DateUtc dt:dt=""string"">2016-10-17T16:47:24Z</DateUtc></StartTime><FrequencyChanges><FrequencyChange><Frequency dt:dt=""r8"">3215429</Frequency><Timestamp dt:dt=""r8"">5032453178924</Timestamp><Current dt:dt=""r8"">0</Current><DateUtc dt:dt=""string"">2016-10-17T16:47:24Z</DateUtc></FrequencyChange></FrequencyChanges></Clock>\n"	Obs_Study2_gamecontroller-1-1	6	4031	2	17933	2	6998	5	6594	60.002	1.1.0.222	1	-1247883393	toolLeft	posLeft	Professional	2.0.10.356	2.0.10.356	10/17/16	10/17/16 16:47	11:47:25	2.0.10.252	1			WITproc	TaskList	1	2	1	5	6	2				WIT_1	1	0	711015	1000	no	experimentalBlockWIT	WITBlockList	2	1	2	70					3					0	0	942692	0	2	6			1						blackFace3.bmp	0	17	940492	1000	800	1		3		mask.bmp	1	0	941892	300	No							0	0	941492	200	black	TrialProcWIT	2	0	0	942192	500	+	TrialListWIT										weapon1.bmp	weapon	1	6	0	0	941692	200	6	421	942113						2	3	70	1					Obs_Study2_gamecontroller	72	1	"<?xml version=""1.0""?>\n<Clock xmlns:dt=""urn:schemas-microsoft-com:datatypes""><Description dt:dt=""string"">E-Prime Primary Realtime Clock</Description><StartTime><Timestamp dt:dt=""int"">0</Timestamp><DateUtc dt:dt=""string"">2016-10-17T16:47:24Z</DateUtc></StartTime><FrequencyChanges><FrequencyChange><Frequency dt:dt=""r8"">3215429</Frequency><Timestamp dt:dt=""r8"">5032453178924</Timestamp><Current dt:dt=""r8"">0</Current><DateUtc dt:dt=""string"">2016-10-17T16:47:24Z</DateUtc></FrequencyChange></FrequencyChanges></Clock>\n"	Obs_Study2_gamecontroller-1-1	6	4031	2	17933	2	6998	5	6594	60.002	1.1.0.222	1	-1247883393	toolLeft	posLeft	Professional	2.0.10.356	2.0.10.356	10/17/16	10/17/16 16:47	11:47:25	2.0.10.252	1			WITproc	TaskList	1	2	1	5	6	2				WIT_1	1	0	711015	1000	no	experimentalBlockWIT	WITBlockList	2	1	2	71					6					0	0	945708	0	2	5			1						blackFace6.bmp	1	16	943508	1000	1200	3		3		mask.bmp	1	0	944908	300	No							1	0	944508	200	black	TrialProcWIT	2	0	0	945208	500	+	TrialListWIT										tool4.bmp	tool	1	5	0	0	944708	200	5	405	945113		4				1	3	71						