ExperimentName	Subject	Session	Clock.Information	DataFile.Basename	DemoAge.RESP	DemoAge.RT	DemoEthnicity.RESP	DemoEthnicity.RT	DemoGender.RESP	DemoGender.RT	DemoRace.RESP	DemoRace.RT	Display.RefreshRate	ExperimentVersion	Group	RandomSeed	responseMappingTool	responseMappingVal	RuntimeCapabilities	RuntimeVersion	RuntimeVersionExpected	SessionDate	SessionStartDateTimeUtc	SessionTime	StudioVersion	Block	InstructionSet	negResponse	posResponse	Procedure[Block]	Running[Block]	TaskList	TaskList.Cycle	TaskList.Sample	toolResponse	weaponResponse	Trial	APBlockList	APBlockList.Cycle	APBlockList.Sample	blockName	oneSecondReadyBreak.DurationError	oneSecondReadyBreak.OnsetDelay	oneSecondReadyBreak.OnsetTime	oneSecondReadyBreak.OnsetToOnsetTime	Practice[Trial]	Procedure[Trial]	Running[Trial]	WITBlockList	WITBlockList.Cycle	WITBlockList.Sample	SubTrial	anxQSlide.RESP	anxQSlide.RT	anxQtext	anxTestList	blackFaceList	blackNegPrac	blackPosPrac	blackToolPrac	blackWeaponPrac	BlankITI.DurationError	BlankITI.OnsetDelay	BlankITI.OnsetTime	BlankITI.OnsetToOnsetTime	correctRespData	CorrectResponse	errorQSlide.RESP	errorQSlide.RT	errorRespData	errQList	errQList.Cycle	errQList.Sample	errQText	errQTextList	facePictureFile	FixationMask.DurationError	FixationMask.OnsetDelay	FixationMask.OnsetTime	FixationMask.OnsetToOnsetTime	ITIDuration	ITIJitter	negList	noRespData	posList	postStimulusMaskFile	postTargetMask.DurationError	postTargetMask.OnsetDelay	postTargetMask.OnsetTime	postTargetMask.OnsetToOnsetTime	Practice[SubTrial]	PracticeListAP	PracticeListAP.Cycle	PracticeListAP.Sample	PracticeListWIT	PracticeListWIT.Cycle	PracticeListWIT.Sample	Prime.DurationError	Prime.OnsetDelay	Prime.OnsetTime	Prime.OnsetToOnsetTime	PrimeType	Procedure[SubTrial]	responseAccData	rtFeedback.DurationError	rtFeedback.OnsetDelay	rtFeedback.OnsetTime	rtFeedback.OnsetToOnsetTime	rtFeedbackText	Running[SubTrial]	TargetAP.ACC	TargetAP.CRESP	TargetAP.DurationError	TargetAP.OnsetDelay	TargetAP.OnsetTime	TargetAP.OnsetToOnsetTime	TargetAP.RESP	TargetAP.RT	TargetAP.RTTime	targetPictureFile	TargetType	TargetWIT.ACC	TargetWIT.CRESP	TargetWIT.DurationError	TargetWIT.OnsetDelay	TargetWIT.OnsetTime	TargetWIT.OnsetToOnsetTime	TargetWIT.RESP	TargetWIT.RT	TargetWIT.RTTime	targetWord	toolList	TrialListAP	TrialListAP.Cycle	TrialListAP.Sample	TrialListWIT	TrialListWIT.Cycle	TrialListWIT.Sample	weaponList	whiteFaceList	whiteNegPrac	whitePosPrac	whiteToolPrac	whiteWeaponPracObs_Study2_gamecontroller	186	1	"<?xml version=""1.0""?>\n<Clock xmlns:dt=""urn:schemas-microsoft-com:datatypes""><Description dt:dt=""string"">E-Prime Primary Realtime Clock</Description><StartTime><Timestamp dt:dt=""int"">0</Timestamp><DateUtc dt:dt=""string"">2016-11-17T21:22:23Z</DateUtc></StartTime><FrequencyChanges><FrequencyChange><Frequency dt:dt=""r8"">2597685</Frequency><Timestamp dt:dt=""r8"">463224278783</Timestamp><Current dt:dt=""r8"">0</Current><DateUtc dt:dt=""string"">2016-11-17T21:22:23Z</DateUtc></FrequencyChange></FrequencyChanges></Clock>\n"	Obs_Study2_gamecontroller-187-1	1	3342	2	15680	1	10699	6	9756	60.001	1.1.0.225	1	-631661013	toolRight	posRight	Professional	2.0.10.356	2.0.10.356	11/17/16	11/17/16 21:22	15:22:23	2.0.10.252	1	ToolRight			WITproc	TaskList	1	2	1	6	5	1				practiceWIT	0	42	1610554	1000	yes	practiceBlockWIT	WITBlockList	1	1	1	1								2		0	0	1613787	0	2	6			1						blackFace1.bmp	0	0	1611554	1000	800	1		3		mask.bmp	1	0	1612954	333	yes				1	2	1	0	0	1612554	200	black	TrialProcWIT	3	0	33	1613287	500	TOO SLOW	PracticeListWIT										tool2.bmp	tool	0	6	0	0	1612754	200		0	0														Obs_Study2_gamecontroller	186	1	"<?xml version=""1.0""?>\n<Clock xmlns:dt=""urn:schemas-microsoft-com:datatypes""><Description dt:dt=""string"">E-Prime Primary Realtime Clock</Description><StartTime><Timestamp dt:dt=""int"">0</Timestamp><DateUtc dt:dt=""string"">2016-11-17T21:22:23Z</DateUtc></StartTime><FrequencyChanges><FrequencyChange><Frequency dt:dt=""r8"">2597685</Frequency><Timestamp dt:dt=""r8"">463224278783</Timestamp><Current dt:dt=""r8"">0</Current><DateUtc dt:dt=""string"">2016-11-17T21:22:23Z</DateUtc></FrequencyChange></FrequencyChanges></Clock>\n"	Obs_Study2_gamecontroller-187-1	1	3342	2	15680	1	10699	6	9756	60.001	1.1.0.225	1	-631661013	toolRight	posRight	Professional	2.0.10.356	2.0.10.356	11/17/16	11/17/16 21:22	15:22:23	2.0.10.252	1	ToolRight			WITproc	TaskList	1	2	1	6	5	1				practiceWIT	0	42	1610554	1000	yes	practiceBlockWIT	WITBlockList	1	1	1	2										0	0	1616820	0	2	6			1						whiteFace4.bmp	0	17	1614604	1000	1200	3		3		mask.bmp	0	0	1616004	316	yes				3	2	2	0	0	1615604	200	white	TrialProcWIT	3	0	16	1616320	500	TOO SLOW	PracticeListWIT										tool3.bmp	tool	0	6	0	0	1615804	200		0	0													7	Obs_Study2_gamecontroller	186	1	"<?xml version=""1.0""?>\n<Clock xmlns:dt=""urn:schemas-microsoft-com:datatypes""><Description dt:dt=""string"">E-Prime Primary Realtime Clock</Description><StartTime><Timestamp dt:dt=""int"">0</Timestamp><DateUtc dt:dt=""string"">2016-11-17T21:22:23Z</DateUtc></StartTime><FrequencyChanges><FrequencyChange><Frequency dt:dt=""r8"">2597685</Frequency><Timestamp dt:dt=""r8"">463224278783</Timestamp><Current dt:dt=""r8"">0</Current><DateUtc dt:dt=""string"">2016-11-17T21:22:23Z</DateUtc></FrequencyChange></FrequencyChanges></Clock>\n"	Obs_Study2_gamecontroller-187-1	1	3342	2	15680	1	10699	6	9756	60.001	1.1.0.225	1	-631661013	toolRight	posRight	Professional	2.0.10.356	2.0.10.356	11/17/16	11/17/16 21:22	15:22:23	2.0.10.252	1	ToolRight			WITproc	TaskList	1	2	1	6	5	1				practiceWIT	0	42	1610554	1000	yes	practiceBlockWIT	WITBlockList	1	1	1	3									15	0	0	1620237	0	2	5			1						blackFace8.bmp	0	17	1618037	1000	1000	2		3		mask.bmp	0	0	1619437	300	yes				2	2	3	0	0	1619037	200	black	TrialProcWIT	2	0	0	1619737	500	+	PracticeListWIT										weapon3.bmp	weapon	1	5	0	0	1619237	200	5	354	1619591														Obs_Study2_gamecontroller	186	1	"<?xml version=""1.0""?>\n<Clock xmlns:dt=""urn:schemas-microsoft-com:datatypes""><Description dt:dt=""string"">E-Prime Primary Realtime Clock</Description><StartTime><Timestamp dt:dt=""int"">0</Timestamp><DateUtc dt:dt=""string"">2016-11-17T21:22:23Z</DateUtc></StartTime><FrequencyChanges><FrequencyChange><Frequency dt:dt=""r8"">2597685</Frequency><Timestamp dt:dt=""r8"">463224278783</Timestamp><Current dt:dt=""r8"">0</Current><DateUtc dt:dt=""string"">2016-11-17T21:22:23Z</DateUtc></FrequencyChange></FrequencyChanges></Clock>\n"	Obs_Study2_gamecontroller-187-1	1	3342	2	15680	1	10699	6	9756	60.001	1.1.0.225	1	-631661013	toolRight	posRight	Professional	2.0.10.356	2.0.10.356	11/17/16	11/17/16 21:22	15:22:23	2.0.10.252	1	ToolRight			WITproc	TaskList	1	2	1	6	5	1				practiceWIT	0	42	1610554	1000	yes	practiceBlockWIT	WITBlockList	1	1	1	4									8	0	0	1623454	0	2	5			1						blackFace4.bmp	0	17	1621254	1000	800	1		3		mask.bmp	0	0	1622654	300	yes				2	2	4	0	0	1622254	200	black	TrialProcWIT	1	0	0	1622954	500	+	PracticeListWIT										weapon4.bmp	weapon	0	5	0	0	1622454	200	6	341	1622795														Obs_Study2_gamecontroller	186	1	"<?xml version=""1.0""?>\n<Clock xmlns:dt=""urn:schemas-microsoft-com:datatypes""><Description dt:dt=""string"">E-Prime Primary Realtime Clock</Description><StartTime><Timestamp dt:dt=""int"">0</Timestamp><DateUtc dt:dt=""string"">2016-11-17T21:22:23Z</DateUtc></StartTime><FrequencyChanges><FrequencyChange><Frequency dt:dt=""r8"">2597685</Frequency><Timestamp dt:dt=""r8"">463224278783</Timestamp><Current dt:dt=""r8"">0</Current><DateUtc dt:dt=""string"">2016-11-17T21:22:23Z</DateUtc></FrequencyChange></FrequencyChanges></Clock>\n"	Obs_Study2_gamecontroller-187-1	1	3342	2	15680	1	10699	6	9756	60.001	1.1.0.225	1	-631661013	toolRight	posRight	Professional	2.0.10.356	2.0.10.356	11/17/16	11/17/16 21:22	15:22:23	2.0.10.252	1	ToolRight			WITproc	TaskList	1	2	1	6	5	1				practiceWIT	0	42	1610554	1000	yes	practiceBlockWIT	WITBlockList	1	1	1	5								12		0	0	1626470	0	2	6			1						blackFace6.bmp	1	16	1624270	1000	1200	3		3		mask.bmp	1	0	1625670	300	yes				1	2	5	1	0	1625270	200	black	TrialProcWIT	2	0	0	1625970	500	+	PracticeListWIT										tool4.bmp	tool	1	6	0	0	1625470	200	6	289	1625759														Obs_Study2_gamecontroller	186	1	"<?xml version=""1.0""?>\n<Clock xmlns:dt=""urn:schemas-microsoft-com:datatypes""><Description dt:dt=""string"">E-Prime Primary Realtime Clock</Description><StartTime><Timestamp dt:dt=""int"">0</Timestamp><DateUtc dt:dt=""string"">2016-11-17T21:22:23Z</DateUtc></StartTime><FrequencyChanges><FrequencyChange><Frequency dt:dt=""r8"">2597685</Frequency><Timestamp dt:dt=""r8"">463224278783</Timestamp><Current dt:dt=""r8"">0</Current><DateUtc dt:dt=""string"">2016-11-17T21:22:23Z</DateUtc></FrequencyChange></FrequencyChanges></Clock>\n"	Obs_Study2_gamecontroller-187-1	1	3342	2	15680	1	10699	6	9756	60.001	1.1.0.225	1	-631661013	toolRight	posRight	Professional	2.0.10.356	2.0.10.356	11/17/16	11/17/16 21:22	15:22:23	2.0.10.252	1	ToolRight			WITproc	TaskList	1	2	1	6	5	1				practiceWIT	0	42	1610554	1000	yes	practiceBlockWIT	WITBlockList	1	1	1	6									7	0	0	1629887	0	2	5			1						blackFace4.bmp	0	17	1627687	1000	1000	2		3		mask.bmp	0	0	1629087	300	yes				2	2	6	0	0	1628687	200	black	TrialProcWIT	1	0	0	1629387	500	+	PracticeListWIT										weapon3.bmp	weapon	0	5	0	0	1628887	200	6	368	1629255														Obs_Study2_gamecontroller	186	1	"<?xml version=""1.0""?>\n<Clock xmlns:dt=""urn:schemas-microsoft-com:datatypes""><Description dt:dt=""string"">E-Prime Primary Realtime Clock</Description><StartTime><Timestamp dt:dt=""int"">0</Timestamp><DateUtc dt:dt=""string"">2016-11-17T21:22:23Z</DateUtc></StartTime><FrequencyChanges><FrequencyChange><Frequency dt:dt=""r8"">2597685</Frequency><Timestamp dt:dt=""r8"">463224278783</Timestamp><Current dt:dt=""r8"">0</Current><DateUtc dt:dt=""string"">2016-11-17T21:22:23Z</DateUtc></FrequencyChange></FrequencyChanges></Clock>\n"	Obs_Study2_gamecontroller-187-1	1	3342	2	15680	1	10699	6	9756	60.001	1.1.0.225	1	-631661013	toolRight	posRight	Professional	2.0.10.356	2.0.10.356	11/17/16	11/17/16 21:22	15:22:23	2.0.10.252	1	ToolRight			WITproc	TaskList	1	2	1	6	5	1				practiceWIT	0	42	1610554	1000	yes	practiceBlockWIT	WITBlockList	1	1	1	7										0	-1	1633103	0	2	5			1						whiteFace6.bmp	1	16	1630903	1000	1000	2		3		mask.bmp	1	0	1632303	301	yes				4	2	7	1	0	1631903	200	white	TrialProcWIT	3	0	1	1632604	499	TOO SLOW	PracticeListWIT										weapon3.bmp	weapon	0	5	0	0	1632103	200		0	0														11Obs_Study2_gamecontroller	186	1	"<?xml version=""1.0""?>\n<Clock xmlns:dt=""urn:schemas-microsoft-com:datatypes""><Description dt:dt=""string"">E-Prime Primary Realtime Clock</Description><StartTime><Timestamp dt:dt=""int"">0</Timestamp><DateUtc dt:dt=""string"">2016-11-17T21:22:23Z</DateUtc></StartTime><FrequencyChanges><FrequencyChange><Frequency dt:dt=""r8"">2597685</Frequency><Timestamp dt:dt=""r8"">463224278783</Timestamp><Current dt:dt=""r8"">0</Current><DateUtc dt:dt=""string"">2016-11-17T21:22:23Z</DateUtc></FrequencyChange></FrequencyChanges></Clock>\n"	Obs_Study2_gamecontroller-187-1	1	3342	2	15680	1	10699	6	9756	60.001	1.1.0.225	1	-631661013	toolRight	posRight	Professional	2.0.10.356	2.0.10.356	11/17/16	11/17/16 21:22	15:22:23	2.0.10.252	1	ToolRight			WITproc	TaskList	1	2	1	6	5	1				practiceWIT	0	42	1610554	1000	yes	practiceBlockWIT	WITBlockList	1	1	1	8										0	0	1636320	0	2	5			1						whiteFace3.bmp	0	17	1634120	1000	1200	3		3		mask.bmp	0	0	1635520	300	yes				4	2	8	0	0	1635120	200	white	TrialProcWIT	2	0	0	1635820	500	+	PracticeListWIT										weapon1.bmp	weapon	1	5	0	0	1635320	200	5	335	1635655														5Obs_Study2_gamecontroller	186	1	"<?xml version=""1.0""?>\n<Clock xmlns:dt=""urn:schemas-microsoft-com:datatypes""><Description dt:dt=""string"">E-Prime Primary Realtime Clock</Description><StartTime><Timestamp dt:dt=""int"">0</Timestamp><DateUtc dt:dt=""string"">2016-11-17T21:22:23Z</DateUtc></StartTime><FrequencyChanges><FrequencyChange><Frequency dt:dt=""r8"">2597685</Frequency><Timestamp dt:dt=""r8"">463224278783</Timestamp><Current dt:dt=""r8"">0</Current><DateUtc dt:dt=""string"">2016-11-17T21:22:23Z</DateUtc></FrequencyChange></FrequencyChanges></Clock>\n"	Obs_Study2_gamecontroller-187-1	1	3342	2	15680	1	10699	6	9756	60.001	1.1.0.225	1	-631661013	toolRight	posRight	Professional	2.0.10.356	2.0.10.356	11/17/16	11/17/16 21:22	15:22:23	2.0.10.252	1	ToolRight			WITproc	TaskList	1	2	1	6	5	1				practiceWIT	0	42	1610554	1000	yes	practiceBlockWIT	WITBlockList	1	1	1	9										0	0	1639737	0	2	5			1						whiteFace5.bmp	0	17	1637537	1000	800	1		3		mask.bmp	0	0	1638937	300	yes				4	2	9	0	0	1638537	200	white	TrialProcWIT	1	0	0	1639237	500	+	PracticeListWIT										weapon2.bmp	weapon	0	5	0	0	1638737	200	6	474	1639211														10Obs_Study2_gamecontroller	186	1	"<?xml version=""1.0""?>\n<Clock xmlns:dt=""urn:schemas-microsoft-com:datatypes""><Description dt:dt=""string"">E-Prime Primary Realtime Clock</Description><StartTime><Timestamp dt:dt=""int"">0</Timestamp><DateUtc dt:dt=""string"">2016-11-17T21:22:23Z</DateUtc></StartTime><FrequencyChanges><FrequencyChange><Frequency dt:dt=""r8"">2597685</Frequency><Timestamp dt:dt=""r8"">463224278783</Timestamp><Current dt:dt=""r8"">0</Current><DateUtc dt:dt=""string"">2016-11-17T21:22:23Z</DateUtc></FrequencyChange></FrequencyChanges></Clock>\n"	Obs_Study2_gamecontroller-187-1	1	3342	2	15680	1	10699	6	9756	60.001	1.1.0.225	1	-631661013	toolRight	posRight	Professional	2.0.10.356	2.0.10.356	11/17/16	11/17/16 21:22	15:22:23	2.0.10.252	1	ToolRight			WITproc	TaskList	1	2	1	6	5	1				practiceWIT	0	42	1610554	1000	yes	practiceBlockWIT	WITBlockList	1	1	1	10										0	0	1642753	0	2	6			1						whiteFace1.bmp	1	16	1640553	1000	800	1		3		mask.bmp	1	0	1641953	300	yes				3	2	10	1	0	1641553	200	white	TrialProcWIT	2	0	0	1642253	500	+	PracticeListWIT										tool1.bmp	tool	1	6	0	0	1641753	200	6	486	1642239													1	Obs_Study2_gamecontroller	186	1	"<?xml version=""1.0""?>\n<Clock xmlns:dt=""urn:schemas-microsoft-com:datatypes""><Description dt:dt=""string"">E-Prime Primary Realtime Clock</Description><StartTime><Timestamp dt:dt=""int"">0</Timestamp><DateUtc dt:dt=""string"">2016-11-17T21:22:23Z</DateUtc></StartTime><FrequencyChanges><FrequencyChange><Frequency dt:dt=""r8"">2597685</Frequency><Timestamp dt:dt=""r8"">463224278783</Timestamp><Current dt:dt=""r8"">0</Current><DateUtc dt:dt=""string"">2016-11-17T21:22:23Z</DateUtc></FrequencyChange></FrequencyChanges></Clock>\n"	Obs_Study2_gamecontroller-187-1	1	3342	2	15680	1	10699	6	9756	60.001	1.1.0.225	1	-631661013	toolRight	posRight	Professional	2.0.10.356	2.0.10.356	11/17/16	11/17/16 21:22	15:22:23	2.0.10.252	1	ToolRight			WITproc	TaskList	1	2	1	6	5	1				practiceWIT	0	42	1610554	1000	yes	practiceBlockWIT	WITBlockList	1	1	1	11										0	0	1645787	0	2	6			1						whiteFace4.bmp	0	17	1643570	1000	1200	3		3		mask.bmp	0	0	1644970	317	yes				3	2	11	1	0	1644570	200	white	TrialProcWIT	3	0	17	1645287	500	TOO SLOW	PracticeListWIT										tool4.bmp	tool	0	6	0	0	1644770	200		0	0													8	Obs_Study2_gamecontroller	186	1	"<?xml version=""1.0""?>\n<Clock xmlns:dt=""urn:schemas-microsoft-com:datatypes""><Description dt:dt=""string"">E-Prime Primary Realtime Clock</Description><StartTime><Timestamp dt:dt=""int"">0</Timestamp><DateUtc dt:dt=""string"">2016-11-17T21:22:23Z</DateUtc></StartTime><FrequencyChanges><FrequencyChange><Frequency dt:dt=""r8"">2597685</Frequency><Timestamp dt:dt=""r8"">463224278783</Timestamp><Current dt:dt=""r8"">0</Current><DateUtc dt:dt=""string"">2016-11-17T21:22:23Z</DateUtc></FrequencyChange></FrequencyChanges></Clock>\n"	Obs_Study2_gamecontroller-187-1	1	3342	2	15680	1	10699	6	9756	60.001	1.1.0.225	1	-631661013	toolRight	posRight	Professional	2.0.10.356	2.0.10.356	11/17/16	11/17/16 21:22	15:22:23	2.0.10.252	1	ToolRight			WITproc	TaskList	1	2	1	6	5	1				practiceWIT	0	42	1610554	1000	yes	practiceBlockWIT	WITBlockList	1	1	1	12										0	0	1649203	0	2	6			1						whiteFace7.bmp	0	16	1647003	1000	1000	2		3		mask.bmp	0	0	1648403	300	yes				3	2	12	1	0	1648003	200	white	TrialProcWIT	2	0	0	1648703	500	+	PracticeListWIT										tool2.bmp	tool	1	6	0	0	1648203	200	6	456	1648659													14	Obs_Study2_gamecontroller	186	1	"<?xml version=""1.0""?>\n<Clock xmlns:dt=""urn:schemas-microsoft-com:datatypes""><Description dt:dt=""string"">E-Prime Primary Realtime Clock</Description><StartTime><Timestamp dt:dt=""int"">0</Timestamp><DateUtc dt:dt=""string"">2016-11-17T21:22:23Z</DateUtc></StartTime><FrequencyChanges><FrequencyChange><Frequency dt:dt=""r8"">2597685</Frequency><Timestamp dt:dt=""r8"">463224278783</Timestamp><Current dt:dt=""r8"">0</Current><DateUtc dt:dt=""string"">2016-11-17T21:22:23Z</DateUtc></FrequencyChange></FrequencyChanges></Clock>\n"	Obs_Study2_gamecontroller-187-1	1	3342	2	15680	1	10699	6	9756	60.001	1.1.0.225	1	-631661013	toolRight	posRight	Professional	2.0.10.356	2.0.10.356	11/17/16	11/17/16 21:22	15:22:23	2.0.10.252	1	ToolRight			WITproc	TaskList	1	2	1	6	5	1				practiceWIT	0	42	1610554	1000	yes	practiceBlockWIT	WITBlockList	1	1	1	13									7	0	0	1652436	0	2	5			1						blackFace4.bmp	0	17	1650220	1000	800	1		3		mask.bmp	0	0	1651620	316	yes				2	2	13	0	0	1651220	200	black	TrialProcWIT	3	0	16	1651936	500	TOO SLOW	PracticeListWIT										weapon3.bmp	weapon	0	5	0	0	1651420	200		0	0														Obs_Study2_gamecontroller	186	1	"<?xml version=""1.0""?>\n<Clock xmlns:dt=""urn:schemas-microsoft-com:datatypes""><Description dt:dt=""string"">E-Prime Primary Realtime Clock</Description><StartTime><Timestamp dt:dt=""int"">0</Timestamp><DateUtc dt:dt=""string"">2016-11-17T21:22:23Z</DateUtc></StartTime><FrequencyChanges><FrequencyChange><Frequency dt:dt=""r8"">2597685</Frequency><Timestamp dt:dt=""r8"">463224278783</Timestamp><Current dt:dt=""r8"">0</Current><DateUtc dt:dt=""string"">2016-11-17T21:22:23Z</DateUtc></FrequencyChange></FrequencyChanges></Clock>\n"	Obs_Study2_gamecontroller-187-1	1	3342	2	15680	1	10699	6	9756	60.001	1.1.0.225	1	-631661013	toolRight	posRight	Professional	2.0.10.356	2.0.10.356	11/17/16	11/17/16 21:22	15:22:23	2.0.10.252	1	ToolRight			WITproc	TaskList	1	2	1	6	5	1				practiceWIT	0	42	1610554	1000	yes	practiceBlockWIT	WITBlockList	1	1	1	14								16		0	-1	1655453	0	2	6			1						blackFace8.bmp	0	17	1653253	1000	1000	2		3		mask.bmp	0	0	1654653	301	yes				1	2	14	1	0	1654253	200	black	TrialProcWIT	3	0	1	1654954	499	TOO SLOW	PracticeListWIT										tool4.bmp	tool	0	6	0	0	1654453	200		0	0														Obs_Study2_gamecontroller	186	1	"<?xml version=""1.0""?>\n<Clock xmlns:dt=""urn:schemas-microsoft-com:datatypes""><Description dt:dt=""string"">E-Prime Primary Realtime Clock</Description><StartTime><Timestamp dt:dt=""int"">0</Timestamp><DateUtc dt:dt=""string"">2016-11-17T21:22:23Z</DateUtc></StartTime><FrequencyChanges><FrequencyChange><Frequency dt:dt=""r8"">2597685</Frequency><Timestamp dt:dt=""r8"">463224278783</Timestamp><Current dt:dt=""r8"">0</Current><DateUtc dt:dt=""string"">2016-11-17T21:22:23Z</DateUtc></FrequencyChange></FrequencyChanges></Clock>\n"	Obs_Study2_gamecontroller-187-1	1	3342	2	15680	1	10699	6	9756	60.001	1.1.0.225	1	-631661013	toolRight	posRight	Professional	2.0.10.356	2.0.10.356	11/17/16	11/17/16 21:22	15:22:23	2.0.10.252	1	ToolRight			WITproc	TaskList	1	2	1	6	5	1				practiceWIT	0	42	1610554	1000	yes	practiceBlockWIT	WITBlockList	1	1	1	15										0	0	1658670	0	2	5			1						whiteFace8.bmp	0	17	1656470	1000	1200	3		3		mask.bmp	0	1	1657871	299	yes				4	2	15	0	0	1657470	200	white	TrialProcWIT	2	0	-1	1658170	500	+	PracticeListWIT										weapon3.bmp	weapon	1	5	0	0	1657670	201	5	437	1658107														15Obs_Study2_gamecontroller	186	1	"<?xml version=""1.0""?>\n<Clock xmlns:dt=""urn:schemas-microsoft-com:datatypes""><Description dt:dt=""string"">E-Prime Primary Realtime Clock</Description><StartTime><Timestamp dt:dt=""int"">0</Timestamp><DateUtc dt:dt=""string"">2016-11-17T21:22:23Z</DateUtc></StartTime><FrequencyChanges><FrequencyChange><Frequency dt:dt=""r8"">2597685</Frequency><Timestamp dt:dt=""r8"">463224278783</Timestamp><Current dt:dt=""r8"">0</Current><DateUtc dt:dt=""string"">2016-11-17T21:22:23Z</DateUtc></FrequencyChange></FrequencyChanges></Clock>\n"	Obs_Study2_gamecontroller-187-1	1	3342	2	15680	1	10699	6	9756	60.001	1.1.0.225	1	-631661013	toolRight	posRight	Professional	2.0.10.356	2.0.10.356	11/17/16	11/17/16 21:22	15:22:23	2.0.10.252	1	ToolRight			WITproc	TaskList	1	2	1	6	5	1				practiceWIT	0	42	1610554	1000	yes	practiceBlockWIT	WITBlockList	1	1	1	16								5		0	-2	1662086	0	2	6			1						blackFace3.bmp	1	16	1659886	1000	1200	3		3		mask.bmp	1	0	1661286	302	yes				1	2	16	1	0	1660886	200	black	TrialProcWIT	3	0	2	1661588	498	TOO SLOW	PracticeListWIT										tool1.bmp	tool	0	6	0	0	1661086	200		0	0														Obs_Study2_gamecontroller	186	1	"<?xml version=""1.0""?>\n<Clock xmlns:dt=""urn:schemas-microsoft-com:datatypes""><Description dt:dt=""string"">E-Prime Primary Realtime Clock</Description><StartTime><Timestamp dt:dt=""int"">0</Timestamp><DateUtc dt:dt=""string"">2016-11-17T21:22:23Z</DateUtc></StartTime><FrequencyChanges><FrequencyChange><Frequency dt:dt=""r8"">2597685</Frequency><Timestamp dt:dt=""r8"">463224278783</Timestamp><Current dt:dt=""r8"">0</Current><DateUtc dt:dt=""string"">2016-11-17T21:22:23Z</DateUtc></FrequencyChange></FrequencyChanges></Clock>\n"	Obs_Study2_gamecontroller-187-1	1	3342	2	15680	1	10699	6	9756	60.001	1.1.0.225	1	-631661013	toolRight	posRight	Professional	2.0.10.356	2.0.10.356	11/17/16	11/17/16 21:22	15:22:23	2.0.10.252	1	ToolRight			WITproc	TaskList	1	2	1	6	5	2				WIT_1	0	0	1680736	1000	no	experimentalBlockWIT	WITBlockList	2	1	2	1					1					0	0	1683953	0	2	5			1						blackFace1.bmp	0	0	1681736	1000	800	1		3		mask.bmp	1	0	1683136	317	No							0	0	1682736	200	black	TrialProcWIT	3	0	17	1683453	500	TOO SLOW	TrialListWIT										weapon4.bmp	weapon	0	5	0	0	1682936	200		0	0						2	1	1	4					Obs_Study2_gamecontroller	186	1	"<?xml version=""1.0""?>\n<Clock xmlns:dt=""urn:schemas-microsoft-com:datatypes""><Description dt:dt=""string"">E-Prime Primary Realtime Clock</Description><StartTime><Timestamp dt:dt=""int"">0</Timestamp><DateUtc dt:dt=""string"">2016-11-17T21:22:23Z</DateUtc></StartTime><FrequencyChanges><FrequencyChange><Frequency dt:dt=""r8"">2597685</Frequency><Timestamp dt:dt=""r8"">463224278783</Timestamp><Current dt:dt=""r8"">0</Current><DateUtc dt:dt=""string"">2016-11-17T21:22:23Z</DateUtc></FrequencyChange></FrequencyChanges></Clock>\n"	Obs_Study2_gamecontroller-187-1	1	3342	2	15680	1	10699	6	9756	60.001	1.1.0.225	1	-631661013	toolRight	posRight	Professional	2.0.10.356	2.0.10.356	11/17/16	11/17/16 21:22	15:22:23	2.0.10.252	1	ToolRight			WITproc	TaskList	1	2	1	6	5	2				WIT_1	0	0	1680736	1000	no	experimentalBlockWIT	WITBlockList	2	1	2	2					6					0	0	1686969	0	2	6			1						blackFace6.bmp	1	16	1684769	1000	1000	2		3		mask.bmp	0	0	1686169	300	No							1	0	1685769	200	black	TrialProcWIT	2	0	0	1686469	500	+	TrialListWIT										tool2.bmp	tool	1	6	0	0	1685969	200	6	401	1686370		2				1	1	2						Obs_Study2_gamecontroller	186	1	"<?xml version=""1.0""?>\n<Clock xmlns:dt=""urn:schemas-microsoft-com:datatypes""><Description dt:dt=""string"">E-Prime Primary Realtime Clock</Description><StartTime><Timestamp dt:dt=""int"">0</Timestamp><DateUtc dt:dt=""string"">2016-11-17T21:22:23Z</DateUtc></StartTime><FrequencyChanges><FrequencyChange><Frequency dt:dt=""r8"">2597685</Frequency><Timestamp dt:dt=""r8"">463224278783</Timestamp><Current dt:dt=""r8"">0</Current><DateUtc dt:dt=""string"">2016-11-17T21:22:23Z</DateUtc></FrequencyChange></FrequencyChanges></Clock>\n"	Obs_Study2_gamecontroller-187-1	1	3342	2	15680	1	10699	6	9756	60.001	1.1.0.225	1	-631661013	toolRight	posRight	Professional	2.0.10.356	2.0.10.356	11/17/16	11/17/16 21:22	15:22:23	2.0.10.252	1	ToolRight			WITproc	TaskList	1	2	1	6	5	2				WIT_1	0	0	1680736	1000	no	experimentalBlockWIT	WITBlockList	2	1	2	3										0	0	1690186	0	2	5			1						whiteFace1.bmp	0	17	1687986	1000	1200	3		3		mask.bmp	0	0	1689386	300	No							0	0	1688986	200	white	TrialProcWIT	2	0	0	1689686	500	+	TrialListWIT										weapon3.bmp	weapon	1	5	0	0	1689186	200	5	396	1689582						4	1	3	3	1				Obs_Study2_gamecontroller	186	1	"<?xml version=""1.0""?>\n<Clock xmlns:dt=""urn:schemas-microsoft-com:datatypes""><Description dt:dt=""string"">E-Prime Primary Realtime Clock</Description><StartTime><Timestamp dt:dt=""int"">0</Timestamp><DateUtc dt:dt=""string"">2016-11-17T21:22:23Z</DateUtc></StartTime><FrequencyChanges><FrequencyChange><Frequency dt:dt=""r8"">2597685</Frequency><Timestamp dt:dt=""r8"">463224278783</Timestamp><Current dt:dt=""r8"">0</Current><DateUtc dt:dt=""string"">2016-11-17T21:22:23Z</DateUtc></FrequencyChange></FrequencyChanges></Clock>\n"	Obs_Study2_gamecontroller-187-1	1	3342	2	15680	1	10699	6	9756	60.001	1.1.0.225	1	-631661013	toolRight	posRight	Professional	2.0.10.356	2.0.10.356	11/17/16	11/17/16 21:22	15:22:23	2.0.10.252	1	ToolRight			WITproc	TaskList	1	2	1	6	5	2				WIT_1	0	0	1680736	1000	no	experimentalBlockWIT	WITBlockList	2	1	2	4										0	0	1693602	0	2	5			1						whiteFace2.bmp	1	16	1691402	1000	1000	2		3		mask.bmp	1	0	1692802	300	No							1	0	1692402	200	white	TrialProcWIT	2	0	0	1693102	500	+	TrialListWIT										weapon1.bmp	weapon	1	5	0	0	1692602	200	5	452	1693054						4	1	4	1	2				Obs_Study2_gamecontroller	186	1	"<?xml version=""1.0""?>\n<Clock xmlns:dt=""urn:schemas-microsoft-com:datatypes""><Description dt:dt=""string"">E-Prime Primary Realtime Clock</Description><StartTime><Timestamp dt:dt=""int"">0</Timestamp><DateUtc dt:dt=""string"">2016-11-17T21:22:23Z</DateUtc></StartTime><FrequencyChanges><FrequencyChange><Frequency dt:dt=""r8"">2597685</Frequency><Timestamp dt:dt=""r8"">463224278783</Timestamp><Current dt:dt=""r8"">0</Current><DateUtc dt:dt=""string"">2016-11-17T21:22:23Z</DateUtc></FrequencyChange></FrequencyChanges></Clock>\n"	Obs_Study2_gamecontroller-187-1	1	3342	2	15680	1	10699	6	9756	60.001	1.1.0.225	1	-631661013	toolRight	posRight	Professional	2.0.10.356	2.0.10.356	11/17/16	11/17/16 21:22	15:22:23	2.0.10.252	1	ToolRight			WITproc	TaskList	1	2	1	6	5	2				WIT_1	0	0	1680736	1000	no	experimentalBlockWIT	WITBlockList	2	1	2	5										0	0	1696819	0	2	6			1						whiteFace3.bmp	0	17	1694619	1000	800	1		3		mask.bmp	0	0	1696019	300	No							1	0	1695619	200	white	TrialProcWIT	2	0	0	1696319	500	+	TrialListWIT										tool3.bmp	tool	1	6	0	0	1695819	200	6	463	1696282		3				3	1	5		3				Obs_Study2_gamecontroller	186	1	"<?xml version=""1.0""?>\n<Clock xmlns:dt=""urn:schemas-microsoft-com:datatypes""><Description dt:dt=""string"">E-Prime Primary Realtime Clock</Description><StartTime><Timestamp dt:dt=""int"">0</Timestamp><DateUtc dt:dt=""string"">2016-11-17T21:22:23Z</DateUtc></StartTime><FrequencyChanges><FrequencyChange><Frequency dt:dt=""r8"">2597685</Frequency><Timestamp dt:dt=""r8"">463224278783</Timestamp><Current dt:dt=""r8"">0</Current><DateUtc dt:dt=""string"">2016-11-17T21:22:23Z</DateUtc></FrequencyChange></FrequencyChanges></Clock>\n"	Obs_Study2_gamecontroller-187-1	1	3342	2	15680	1	10699	6	9756	60.001	1.1.0.225	1	-631661013	toolRight	posRight	Professional	2.0.10.356	2.0.10.356	11/17/16	11/17/16 21:22	15:22:23	2.0.10.252	1	ToolRight			WITproc	TaskList	1	2	1	6	5	2				WIT_1	0	0	1680736	1000	no	experimentalBlockWIT	WITBlockList	2	1	2	6										0	0	1699836	0	2	6			1						whiteFace4.bmp	0	17	1697636	1000	800	1		3		mask.bmp	0	0	1699036	300	No							0	0	1698636	200	white	TrialProcWIT	2	0	0	1699336	500	+	TrialListWIT										tool4.bmp	tool	1	6	0	0	1698836	200	6	394	1699230		4				3	1	6		4				Obs_Study2_gamecontroller	186	1	"<?xml version=""1.0""?>\n<Clock xmlns:dt=""urn:schemas-microsoft-com:datatypes""><Description dt:dt=""string"">E-Prime Primary Realtime Clock</Description><StartTime><Timestamp dt:dt=""int"">0</Timestamp><DateUtc dt:dt=""string"">2016-11-17T21:22:23Z</DateUtc></StartTime><FrequencyChanges><FrequencyChange><Frequency dt:dt=""r8"">2597685</Frequency><Timestamp dt:dt=""r8"">463224278783</Timestamp><Current dt:dt=""r8"">0</Current><DateUtc dt:dt=""string"">2016-11-17T21:22:23Z</DateUtc></FrequencyChange></FrequencyChanges></Clock>\n"	Obs_Study2_gamecontroller-187-1	1	3342	2	15680	1	10699	6	9756	60.001	1.1.0.225	1	-631661013	toolRight	posRight	Professional	2.0.10.356	2.0.10.356	11/17/16	11/17/16 21:22	15:22:23	2.0.10.252	1	ToolRight			WITproc	TaskList	1	2	1	6	5	2				WIT_1	0	0	1680736	1000	no	experimentalBlockWIT	WITBlockList	2	1	2	7					5					0	-1	1702852	0	2	6			1						blackFace5.bmp	1	16	1700652	1000	1000	2		3		mask.bmp	1	0	1702052	301	No							1	0	1701652	200	black	TrialProcWIT	3	0	1	1702353	499	TOO SLOW	TrialListWIT										tool1.bmp	tool	0	6	0	0	1701852	200		0	0		1				1	1	7						Obs_Study2_gamecontroller	186	1	"<?xml version=""1.0""?>\n<Clock xmlns:dt=""urn:schemas-microsoft-com:datatypes""><Description dt:dt=""string"">E-Prime Primary Realtime Clock</Description><StartTime><Timestamp dt:dt=""int"">0</Timestamp><DateUtc dt:dt=""string"">2016-11-17T21:22:23Z</DateUtc></StartTime><FrequencyChanges><FrequencyChange><Frequency dt:dt=""r8"">2597685</Frequency><Timestamp dt:dt=""r8"">463224278783</Timestamp><Current dt:dt=""r8"">0</Current><DateUtc dt:dt=""string"">2016-11-17T21:22:23Z</DateUtc></FrequencyChange></FrequencyChanges></Clock>\n"	Obs_Study2_gamecontroller-187-1	1	3342	2	15680	1	10699	6	9756	60.001	1.1.0.225	1	-631661013	toolRight	posRight	Professional	2.0.10.356	2.0.10.356	11/17/16	11/17/16 21:22	15:22:23	2.0.10.252	1	ToolRight			WITproc	TaskList	1	2	1	6	5	2				WIT_1	0	0	1680736	1000	no	experimentalBlockWIT	WITBlockList	2	1	2	8										0	0	1706069	0	2	5			1						whiteFace5.bmp	0	17	1703869	1000	1200	3		3		mask.bmp	0	0	1705269	300	No							0	0	1704869	200	white	TrialProcWIT	2	0	0	1705569	500	+	TrialListWIT										weapon2.bmp	weapon	1	5	0	0	1705069	200	5	465	1705534						4	1	8	2	5				Obs_Study2_gamecontroller	186	1	"<?xml version=""1.0""?>\n<Clock xmlns:dt=""urn:schemas-microsoft-com:datatypes""><Description dt:dt=""string"">E-Prime Primary Realtime Clock</Description><StartTime><Timestamp dt:dt=""int"">0</Timestamp><DateUtc dt:dt=""string"">2016-11-17T21:22:23Z</DateUtc></StartTime><FrequencyChanges><FrequencyChange><Frequency dt:dt=""r8"">2597685</Frequency><Timestamp dt:dt=""r8"">463224278783</Timestamp><Current dt:dt=""r8"">0</Current><DateUtc dt:dt=""string"">2016-11-17T21:22:23Z</DateUtc></FrequencyChange></FrequencyChanges></Clock>\n"	Obs_Study2_gamecontroller-187-1	1	3342	2	15680	1	10699	6	9756	60.001	1.1.0.225	1	-631661013	toolRight	posRight	Professional	2.0.10.356	2.0.10.356	11/17/16	11/17/16 21:22	15:22:23	2.0.10.252	1	ToolRight			WITproc	TaskList	1	2	1	6	5	2				WIT_1	0	0	1680736	1000	no	experimentalBlockWIT	WITBlockList	2	1	2	9										0	0	1709485	0	2	6			1						whiteFace6.bmp	1	16	1707285	1000	800	1		3		mask.bmp	1	0	1708685	300	No							1	0	1708285	200	white	TrialProcWIT	1	0	0	1708985	500	+	TrialListWIT										tool3.bmp	tool	0	6	0	0	1708485	200	5	497	1708982		3				3	1	9		6				Obs_Study2_gamecontroller	186	1	"<?xml version=""1.0""?>\n<Clock xmlns:dt=""urn:schemas-microsoft-com:datatypes""><Description dt:dt=""string"">E-Prime Primary Realtime Clock</Description><StartTime><Timestamp dt:dt=""int"">0</Timestamp><DateUtc dt:dt=""string"">2016-11-17T21:22:23Z</DateUtc></StartTime><FrequencyChanges><FrequencyChange><Frequency dt:dt=""r8"">2597685</Frequency><Timestamp dt:dt=""r8"">463224278783</Timestamp><Current dt:dt=""r8"">0</Current><DateUtc dt:dt=""string"">2016-11-17T21:22:23Z</DateUtc></FrequencyChange></FrequencyChanges></Clock>\n"	Obs_Study2_gamecontroller-187-1	1	3342	2	15680	1	10699	6	9756	60.001	1.1.0.225	1	-631661013	toolRight	posRight	Professional	2.0.10.356	2.0.10.356	11/17/16	11/17/16 21:22	15:22:23	2.0.10.252	1	ToolRight			WITproc	TaskList	1	2	1	6	5	2				WIT_1	0	0	1680736	1000	no	experimentalBlockWIT	WITBlockList	2	1	2	10					7					0	0	1712502	0	2	5			1						blackFace7.bmp	0	17	1710302	1000	1000	2		3		mask.bmp	0	0	1711702	300	No							1	0	1711302	200	black	TrialProcWIT	1	0	0	1712002	500	+	TrialListWIT										weapon3.bmp	weapon	0	5	0	0	1711502	200	6	432	1711934						2	1	10	3					Obs_Study2_gamecontroller	186	1	"<?xml version=""1.0""?>\n<Clock xmlns:dt=""urn:schemas-microsoft-com:datatypes""><Description dt:dt=""string"">E-Prime Primary Realtime Clock</Description><StartTime><Timestamp dt:dt=""int"">0</Timestamp><DateUtc dt:dt=""string"">2016-11-17T21:22:23Z</DateUtc></StartTime><FrequencyChanges><FrequencyChange><Frequency dt:dt=""r8"">2597685</Frequency><Timestamp dt:dt=""r8"">463224278783</Timestamp><Current dt:dt=""r8"">0</Current><DateUtc dt:dt=""string"">2016-11-17T21:22:23Z</DateUtc></FrequencyChange></FrequencyChanges></Clock>\n"	Obs_Study2_gamecontroller-187-1	1	3342	2	15680	1	10699	6	9756	60.001	1.1.0.225	1	-631661013	toolRight	posRight	Professional	2.0.10.356	2.0.10.356	11/17/16	11/17/16 21:22	15:22:23	2.0.10.252	1	ToolRight			WITproc	TaskList	1	2	1	6	5	2				WIT_1	0	0	1680736	1000	no	experimentalBlockWIT	WITBlockList	2	1	2	11					3					0	0	1715735	0	2	5			1						blackFace3.bmp	0	17	1713519	1000	1200	3		3		mask.bmp	0	0	1714919	316	No							0	0	1714519	200	black	TrialProcWIT	3	0	16	1715235	500	TOO SLOW	TrialListWIT										weapon4.bmp	weapon	0	5	0	0	1714719	200		0	0						2	1	11	4					Obs_Study2_gamecontroller	186	1	"<?xml version=""1.0""?>\n<Clock xmlns:dt=""urn:schemas-microsoft-com:datatypes""><Description dt:dt=""string"">E-Prime Primary Realtime Clock</Description><StartTime><Timestamp dt:dt=""int"">0</Timestamp><DateUtc dt:dt=""string"">2016-11-17T21:22:23Z</DateUtc></StartTime><FrequencyChanges><FrequencyChange><Frequency dt:dt=""r8"">2597685</Frequency><Timestamp dt:dt=""r8"">463224278783</Timestamp><Current dt:dt=""r8"">0</Current><DateUtc dt:dt=""string"">2016-11-17T21:22:23Z</DateUtc></FrequencyChange></FrequencyChanges></Clock>\n"	Obs_Study2_gamecontroller-187-1	1	3342	2	15680	1	10699	6	9756	60.001	1.1.0.225	1	-631661013	toolRight	posRight	Professional	2.0.10.356	2.0.10.356	11/17/16	11/17/16 21:22	15:22:23	2.0.10.252	1	ToolRight			WITproc	TaskList	1	2	1	6	5	2				WIT_1	0	0	1680736	1000	no	experimentalBlockWIT	WITBlockList	2	1	2	12										0	0	1719169	0	2	6			1						whiteFace7.bmp	0	17	1716952	1000	1200	3		3		mask.bmp	0	1	1718353	316	No							0	0	1717952	200	white	TrialProcWIT	3	0	16	1718669	500	TOO SLOW	TrialListWIT										tool1.bmp	tool	0	6	0	0	1718152	201		0	0		1				3	1	12		7				Obs_Study2_gamecontroller	186	1	"<?xml version=""1.0""?>\n<Clock xmlns:dt=""urn:schemas-microsoft-com:datatypes""><Description dt:dt=""string"">E-Prime Primary Realtime Clock</Description><StartTime><Timestamp dt:dt=""int"">0</Timestamp><DateUtc dt:dt=""string"">2016-11-17T21:22:23Z</DateUtc></StartTime><FrequencyChanges><FrequencyChange><Frequency dt:dt=""r8"">2597685</Frequency><Timestamp dt:dt=""r8"">463224278783</Timestamp><Current dt:dt=""r8"">0</Current><DateUtc dt:dt=""string"">2016-11-17T21:22:23Z</DateUtc></FrequencyChange></FrequencyChanges></Clock>\n"	Obs_Study2_gamecontroller-187-1	1	3342	2	15680	1	10699	6	9756	60.001	1.1.0.225	1	-631661013	toolRight	posRight	Professional	2.0.10.356	2.0.10.356	11/17/16	11/17/16 21:22	15:22:23	2.0.10.252	1	ToolRight			WITproc	TaskList	1	2	1	6	5	2				WIT_1	0	0	1680736	1000	no	experimentalBlockWIT	WITBlockList	2	1	2	13					4					0	-1	1722585	0	2	5			1						blackFace4.bmp	1	16	1720385	1000	800	1		3		mask.bmp	1	0	1721785	301	No							1	0	1721385	200	black	TrialProcWIT	3	0	1	1722086	499	TOO SLOW	TrialListWIT										weapon2.bmp	weapon	0	5	0	0	1721585	200		0	0						2	1	13	2					Obs_Study2_gamecontroller	186	1	"<?xml version=""1.0""?>\n<Clock xmlns:dt=""urn:schemas-microsoft-com:datatypes""><Description dt:dt=""string"">E-Prime Primary Realtime Clock</Description><StartTime><Timestamp dt:dt=""int"">0</Timestamp><DateUtc dt:dt=""string"">2016-11-17T21:22:23Z</DateUtc></StartTime><FrequencyChanges><FrequencyChange><Frequency dt:dt=""r8"">2597685</Frequency><Timestamp dt:dt=""r8"">463224278783</Timestamp><Current dt:dt=""r8"">0</Current><DateUtc dt:dt=""string"">2016-11-17T21:22:23Z</DateUtc></FrequencyChange></FrequencyChanges></Clock>\n"	Obs_Study2_gamecontroller-187-1	1	3342	2	15680	1	10699	6	9756	60.001	1.1.0.225	1	-631661013	toolRight	posRight	Professional	2.0.10.356	2.0.10.356	11/17/16	11/17/16 21:22	15:22:23	2.0.10.252	1	ToolRight			WITproc	TaskList	1	2	1	6	5	2				WIT_1	0	0	1680736	1000	no	experimentalBlockWIT	WITBlockList	2	1	2	14										0	0	1725618	0	2	5			1						whiteFace8.bmp	0	17	1723402	1000	1000	2		3		mask.bmp	0	0	1724802	316	No							0	0	1724402	200	white	TrialProcWIT	3	0	16	1725118	500	TOO SLOW	TrialListWIT										weapon1.bmp	weapon	0	5	0	0	1724602	200		0	0						4	1	14	1	8				Obs_Study2_gamecontroller	186	1	"<?xml version=""1.0""?>\n<Clock xmlns:dt=""urn:schemas-microsoft-com:datatypes""><Description dt:dt=""string"">E-Prime Primary Realtime Clock</Description><StartTime><Timestamp dt:dt=""int"">0</Timestamp><DateUtc dt:dt=""string"">2016-11-17T21:22:23Z</DateUtc></StartTime><FrequencyChanges><FrequencyChange><Frequency dt:dt=""r8"">2597685</Frequency><Timestamp dt:dt=""r8"">463224278783</Timestamp><Current dt:dt=""r8"">0</Current><DateUtc dt:dt=""string"">2016-11-17T21:22:23Z</DateUtc></FrequencyChange></FrequencyChanges></Clock>\n"	Obs_Study2_gamecontroller-187-1	1	3342	2	15680	1	10699	6	9756	60.001	1.1.0.225	1	-631661013	toolRight	posRight	Professional	2.0.10.356	2.0.10.356	11/17/16	11/17/16 21:22	15:22:23	2.0.10.252	1	ToolRight			WITproc	TaskList	1	2	1	6	5	2				WIT_1	0	0	1680736	1000	no	experimentalBlockWIT	WITBlockList	2	1	2	15										0	0	1728835	0	2	6			1						whiteFace1.bmp	1	17	1726635	1000	800	1		3		mask.bmp	0	0	1728035	300	No							1	0	1727635	200	white	TrialProcWIT	2	0	0	1728335	500	+	TrialListWIT										tool2.bmp	tool	1	6	0	0	1727835	200	6	427	1728262		2				3	1	15		1				Obs_Study2_gamecontroller	186	1	"<?xml version=""1.0""?>\n<Clock xmlns:dt=""urn:schemas-microsoft-com:datatypes""><Description dt:dt=""string"">E-Prime Primary Realtime Clock</Description><StartTime><Timestamp dt:dt=""int"">0</Timestamp><DateUtc dt:dt=""string"">2016-11-17T21:22:23Z</DateUtc></StartTime><FrequencyChanges><FrequencyChange><Frequency dt:dt=""r8"">2597685</Frequency><Timestamp dt:dt=""r8"">463224278783</Timestamp><Current dt:dt=""r8"">0</Current><DateUtc dt:dt=""string"">2016-11-17T21:22:23Z</DateUtc></FrequencyChange></FrequencyChanges></Clock>\n"	Obs_Study2_gamecontroller-187-1	1	3342	2	15680	1	10699	6	9756	60.001	1.1.0.225	1	-631661013	toolRight	posRight	Professional	2.0.10.356	2.0.10.356	11/17/16	11/17/16 21:22	15:22:23	2.0.10.252	1	ToolRight			WITproc	TaskList	1	2	1	6	5	2				WIT_1	0	0	1680736	1000	no	experimentalBlockWIT	WITBlockList	2	1	2	16					8					0	0	1731852	0	2	5			1						blackFace8.bmp	0	17	1729652	1000	1000	2		3		mask.bmp	0	0	1731052	300	No							0	0	1730652	200	black	TrialProcWIT	2	0	0	1731352	500	+	TrialListWIT										weapon3.bmp	weapon	1	5	0	0	1730852	200	5	358	1731210						2	1	16	3					Obs_Study2_gamecontroller	186	1	"<?xml version=""1.0""?>\n<Clock xmlns:dt=""urn:schemas-microsoft-com:datatypes""><Description dt:dt=""string"">E-Prime Primary Realtime Clock</Description><StartTime><Timestamp dt:dt=""int"">0</Timestamp><DateUtc dt:dt=""string"">2016-11-17T21:22:23Z</DateUtc></StartTime><FrequencyChanges><FrequencyChange><Frequency dt:dt=""r8"">2597685</Frequency><Timestamp dt:dt=""r8"">463224278783</Timestamp><Current dt:dt=""r8"">0</Current><DateUtc dt:dt=""string"">2016-11-17T21:22:23Z</DateUtc></FrequencyChange></FrequencyChanges></Clock>\n"	Obs_Study2_gamecontroller-187-1	1	3342	2	15680	1	10699	6	9756	60.001	1.1.0.225	1	-631661013	toolRight	posRight	Professional	2.0.10.356	2.0.10.356	11/17/16	11/17/16 21:22	15:22:23	2.0.10.252	1	ToolRight			WITproc	TaskList	1	2	1	6	5	2				WIT_1	0	0	1680736	1000	no	experimentalBlockWIT	WITBlockList	2	1	2	17					2					0	-1	1735068	0	2	6			1						blackFace2.bmp	1	16	1732868	1000	1200	3		3		mask.bmp	1	0	1734268	301	No							1	0	1733868	200	black	TrialProcWIT	3	0	1	1734569	499	TOO SLOW	TrialListWIT										tool4.bmp	tool	0	6	0	0	1734068	200		0	0		4				1	1	17						Obs_Study2_gamecontroller	186	1	"<?xml version=""1.0""?>\n<Clock xmlns:dt=""urn:schemas-microsoft-com:datatypes""><Description dt:dt=""string"">E-Prime Primary Realtime Clock</Description><StartTime><Timestamp dt:dt=""int"">0</Timestamp><DateUtc dt:dt=""string"">2016-11-17T21:22:23Z</DateUtc></StartTime><FrequencyChanges><FrequencyChange><Frequency dt:dt=""r8"">2597685</Frequency><Timestamp dt:dt=""r8"">463224278783</Timestamp><Current dt:dt=""r8"">0</Current><DateUtc dt:dt=""string"">2016-11-17T21:22:23Z</DateUtc></FrequencyChange></FrequencyChanges></Clock>\n"	Obs_Study2_gamecontroller-187-1	1	3342	2	15680	1	10699	6	9756	60.001	1.1.0.225	1	-631661013	toolRight	posRight	Professional	2.0.10.356	2.0.10.356	11/17/16	11/17/16 21:22	15:22:23	2.0.10.252	1	ToolRight			WITproc	TaskList	1	2	1	6	5	2				WIT_1	0	0	1680736	1000	no	experimentalBlockWIT	WITBlockList	2	1	2	18										0	-1	1738485	0	2	5			1						whiteFace2.bmp	0	17	1736285	1000	1000	2		3		mask.bmp	0	0	1737685	301	No							0	0	1737285	200	white	TrialProcWIT	3	0	1	1737986	499	TOO SLOW	TrialListWIT										weapon1.bmp	weapon	0	5	0	0	1737485	200		0	0						4	1	18	1	2				Obs_Study2_gamecontroller	186	1	"<?xml version=""1.0""?>\n<Clock xmlns:dt=""urn:schemas-microsoft-com:datatypes""><Description dt:dt=""string"">E-Prime Primary Realtime Clock</Description><StartTime><Timestamp dt:dt=""int"">0</Timestamp><DateUtc dt:dt=""string"">2016-11-17T21:22:23Z</DateUtc></StartTime><FrequencyChanges><FrequencyChange><Frequency dt:dt=""r8"">2597685</Frequency><Timestamp dt:dt=""r8"">463224278783</Timestamp><Current dt:dt=""r8"">0</Current><DateUtc dt:dt=""string"">2016-11-17T21:22:23Z</DateUtc></FrequencyChange></FrequencyChanges></Clock>\n"	Obs_Study2_gamecontroller-187-1	1	3342	2	15680	1	10699	6	9756	60.001	1.1.0.225	1	-631661013	toolRight	posRight	Professional	2.0.10.356	2.0.10.356	11/17/16	11/17/16 21:22	15:22:23	2.0.10.252	1	ToolRight			WITproc	TaskList	1	2	1	6	5	2				WIT_1	0	0	1680736	1000	no	experimentalBlockWIT	WITBlockList	2	1	2	19					1					0	0	1741702	0	2	6			1						blackFace1.bmp	0	17	1739502	1000	800	1		3		mask.bmp	0	0	1740902	300	No							0	0	1740502	200	black	TrialProcWIT	2	0	0	1741202	500	+	TrialListWIT										tool1.bmp	tool	1	6	0	0	1740702	200	6	407	1741109		1				1	1	19						Obs_Study2_gamecontroller	186	1	"<?xml version=""1.0""?>\n<Clock xmlns:dt=""urn:schemas-microsoft-com:datatypes""><Description dt:dt=""string"">E-Prime Primary Realtime Clock</Description><StartTime><Timestamp dt:dt=""int"">0</Timestamp><DateUtc dt:dt=""string"">2016-11-17T21:22:23Z</DateUtc></StartTime><FrequencyChanges><FrequencyChange><Frequency dt:dt=""r8"">2597685</Frequency><Timestamp dt:dt=""r8"">463224278783</Timestamp><Current dt:dt=""r8"">0</Current><DateUtc dt:dt=""string"">2016-11-17T21:22:23Z</DateUtc></FrequencyChange></FrequencyChanges></Clock>\n"	Obs_Study2_gamecontroller-187-1	1	3342	2	15680	1	10699	6	9756	60.001	1.1.0.225	1	-631661013	toolRight	posRight	Professional	2.0.10.356	2.0.10.356	11/17/16	11/17/16 21:22	15:22:23	2.0.10.252	1	ToolRight			WITproc	TaskList	1	2	1	6	5	2				WIT_1	0	0	1680736	1000	no	experimentalBlockWIT	WITBlockList	2	1	2	20					7					0	-1	1744718	0	2	6			1						blackFace7.bmp	1	16	1742518	1000	1200	3		3		mask.bmp	0	0	1743918	301	No							1	0	1743518	200	black	TrialProcWIT	3	0	1	1744219	499	TOO SLOW	TrialListWIT										tool2.bmp	tool	0	6	0	0	1743718	200		0	0		2				1	1	20						Obs_Study2_gamecontroller	186	1	"<?xml version=""1.0""?>\n<Clock xmlns:dt=""urn:schemas-microsoft-com:datatypes""><Description dt:dt=""string"">E-Prime Primary Realtime Clock</Description><StartTime><Timestamp dt:dt=""int"">0</Timestamp><DateUtc dt:dt=""string"">2016-11-17T21:22:23Z</DateUtc></StartTime><FrequencyChanges><FrequencyChange><Frequency dt:dt=""r8"">2597685</Frequency><Timestamp dt:dt=""r8"">463224278783</Timestamp><Current dt:dt=""r8"">0</Current><DateUtc dt:dt=""string"">2016-11-17T21:22:23Z</DateUtc></FrequencyChange></FrequencyChanges></Clock>\n"	Obs_Study2_gamecontroller-187-1	1	3342	2	15680	1	10699	6	9756	60.001	1.1.0.225	1	-631661013	toolRight	posRight	Professional	2.0.10.356	2.0.10.356	11/17/16	11/17/16 21:22	15:22:23	2.0.10.252	1	ToolRight			WITproc	TaskList	1	2	1	6	5	2				WIT_1	0	0	1680736	1000	no	experimentalBlockWIT	WITBlockList	2	1	2	21					6					0	0	1748135	0	2	6			1						blackFace6.bmp	0	17	1745935	1000	1000	2		3		mask.bmp	1	0	1747335	300	No							0	0	1746935	200	black	TrialProcWIT	1	0	0	1747635	500	+	TrialListWIT										tool4.bmp	tool	0	6	0	0	1747135	200	5	390	1747525		4				1	1	21						Obs_Study2_gamecontroller	186	1	"<?xml version=""1.0""?>\n<Clock xmlns:dt=""urn:schemas-microsoft-com:datatypes""><Description dt:dt=""string"">E-Prime Primary Realtime Clock</Description><StartTime><Timestamp dt:dt=""int"">0</Timestamp><DateUtc dt:dt=""string"">2016-11-17T21:22:23Z</DateUtc></StartTime><FrequencyChanges><FrequencyChange><Frequency dt:dt=""r8"">2597685</Frequency><Timestamp dt:dt=""r8"">463224278783</Timestamp><Current dt:dt=""r8"">0</Current><DateUtc dt:dt=""string"">2016-11-17T21:22:23Z</DateUtc></FrequencyChange></FrequencyChanges></Clock>\n"	Obs_Study2_gamecontroller-187-1	1	3342	2	15680	1	10699	6	9756	60.001	1.1.0.225	1	-631661013	toolRight	posRight	Professional	2.0.10.356	2.0.10.356	11/17/16	11/17/16 21:22	15:22:23	2.0.10.252	1	ToolRight			WITproc	TaskList	1	2	1	6	5	2				WIT_1	0	0	1680736	1000	no	experimentalBlockWIT	WITBlockList	2	1	2	22										0	0	1751351	0	2	5			1						whiteFace3.bmp	1	16	1749151	1000	1200	3		3		mask.bmp	1	0	1750551	300	No							1	0	1750151	200	white	TrialProcWIT	1	0	0	1750851	500	+	TrialListWIT										weapon4.bmp	weapon	0	5	0	0	1750351	200	6	394	1750745						4	1	22	4	3				Obs_Study2_gamecontroller	186	1	"<?xml version=""1.0""?>\n<Clock xmlns:dt=""urn:schemas-microsoft-com:datatypes""><Description dt:dt=""string"">E-Prime Primary Realtime Clock</Description><StartTime><Timestamp dt:dt=""int"">0</Timestamp><DateUtc dt:dt=""string"">2016-11-17T21:22:23Z</DateUtc></StartTime><FrequencyChanges><FrequencyChange><Frequency dt:dt=""r8"">2597685</Frequency><Timestamp dt:dt=""r8"">463224278783</Timestamp><Current dt:dt=""r8"">0</Current><DateUtc dt:dt=""string"">2016-11-17T21:22:23Z</DateUtc></FrequencyChange></FrequencyChanges></Clock>\n"	Obs_Study2_gamecontroller-187-1	1	3342	2	15680	1	10699	6	9756	60.001	1.1.0.225	1	-631661013	toolRight	posRight	Professional	2.0.10.356	2.0.10.356	11/17/16	11/17/16 21:22	15:22:23	2.0.10.252	1	ToolRight			WITproc	TaskList	1	2	1	6	5	2				WIT_1	0	0	1680736	1000	no	experimentalBlockWIT	WITBlockList	2	1	2	23										0	0	1754768	0	2	6			1						whiteFace4.bmp	0	17	1752568	1000	800	1		3		mask.bmp	0	0	1753968	300	No							0	0	1753568	200	white	TrialProcWIT	2	0	0	1754268	500	+	TrialListWIT										tool3.bmp	tool	1	6	0	0	1753768	200	6	441	1754209		3				3	1	23		4				Obs_Study2_gamecontroller	186	1	"<?xml version=""1.0""?>\n<Clock xmlns:dt=""urn:schemas-microsoft-com:datatypes""><Description dt:dt=""string"">E-Prime Primary Realtime Clock</Description><StartTime><Timestamp dt:dt=""int"">0</Timestamp><DateUtc dt:dt=""string"">2016-11-17T21:22:23Z</DateUtc></StartTime><FrequencyChanges><FrequencyChange><Frequency dt:dt=""r8"">2597685</Frequency><Timestamp dt:dt=""r8"">463224278783</Timestamp><Current dt:dt=""r8"">0</Current><DateUtc dt:dt=""string"">2016-11-17T21:22:23Z</DateUtc></FrequencyChange></FrequencyChanges></Clock>\n"	Obs_Study2_gamecontroller-187-1	1	3342	2	15680	1	10699	6	9756	60.001	1.1.0.225	1	-631661013	toolRight	posRight	Professional	2.0.10.356	2.0.10.356	11/17/16	11/17/16 21:22	15:22:23	2.0.10.252	1	ToolRight			WITproc	TaskList	1	2	1	6	5	2				WIT_1	0	0	1680736	1000	no	experimentalBlockWIT	WITBlockList	2	1	2	24										0	0	1757785	0	2	6			1						whiteFace5.bmp	0	17	1755585	1000	1200	3		3		mask.bmp	0	0	1756985	300	No							0	0	1756585	200	white	TrialProcWIT	2	0	0	1757285	500	+	TrialListWIT										tool2.bmp	tool	1	6	0	0	1756785	200	6	392	1757177		2				3	1	24		5				Obs_Study2_gamecontroller	186	1	"<?xml version=""1.0""?>\n<Clock xmlns:dt=""urn:schemas-microsoft-com:datatypes""><Description dt:dt=""string"">E-Prime Primary Realtime Clock</Description><StartTime><Timestamp dt:dt=""int"">0</Timestamp><DateUtc dt:dt=""string"">2016-11-17T21:22:23Z</DateUtc></StartTime><FrequencyChanges><FrequencyChange><Frequency dt:dt=""r8"">2597685</Frequency><Timestamp dt:dt=""r8"">463224278783</Timestamp><Current dt:dt=""r8"">0</Current><DateUtc dt:dt=""string"">2016-11-17T21:22:23Z</DateUtc></FrequencyChange></FrequencyChanges></Clock>\n"	Obs_Study2_gamecontroller-187-1	1	3342	2	15680	1	10699	6	9756	60.001	1.1.0.225	1	-631661013	toolRight	posRight	Professional	2.0.10.356	2.0.10.356	11/17/16	11/17/16 21:22	15:22:23	2.0.10.252	1	ToolRight			WITproc	TaskList	1	2	1	6	5	2				WIT_1	0	0	1680736	1000	no	experimentalBlockWIT	WITBlockList	2	1	2	25					5					0	0	1761201	0	2	5			1						blackFace5.bmp	1	16	1759001	1000	1000	2		3		mask.bmp	1	0	1760401	300	No							1	0	1760001	200	black	TrialProcWIT	2	0	0	1760701	500	+	TrialListWIT										weapon2.bmp	weapon	1	5	0	0	1760201	200	5	364	1760565						2	1	25	2					Obs_Study2_gamecontroller	186	1	"<?xml version=""1.0""?>\n<Clock xmlns:dt=""urn:schemas-microsoft-com:datatypes""><Description dt:dt=""string"">E-Prime Primary Realtime Clock</Description><StartTime><Timestamp dt:dt=""int"">0</Timestamp><DateUtc dt:dt=""string"">2016-11-17T21:22:23Z</DateUtc></StartTime><FrequencyChanges><FrequencyChange><Frequency dt:dt=""r8"">2597685</Frequency><Timestamp dt:dt=""r8"">463224278783</Timestamp><Current dt:dt=""r8"">0</Current><DateUtc dt:dt=""string"">2016-11-17T21:22:23Z</DateUtc></FrequencyChange></FrequencyChanges></Clock>\n"	Obs_Study2_gamecontroller-187-1	1	3342	2	15680	1	10699	6	9756	60.001	1.1.0.225	1	-631661013	toolRight	posRight	Professional	2.0.10.356	2.0.10.356	11/17/16	11/17/16 21:22	15:22:23	2.0.10.252	1	ToolRight			WITproc	TaskList	1	2	1	6	5	2				WIT_1	0	0	1680736	1000	no	experimentalBlockWIT	WITBlockList	2	1	2	26										0	0	1764418	0	2	6			1						whiteFace6.bmp	0	17	1762218	1000	800	1		3		mask.bmp	0	0	1763618	300	No							0	0	1763218	200	white	TrialProcWIT	2	0	0	1763918	500	+	TrialListWIT										tool1.bmp	tool	1	6	0	0	1763418	200	6	435	1763853		1				3	1	26		6				Obs_Study2_gamecontroller	186	1	"<?xml version=""1.0""?>\n<Clock xmlns:dt=""urn:schemas-microsoft-com:datatypes""><Description dt:dt=""string"">E-Prime Primary Realtime Clock</Description><StartTime><Timestamp dt:dt=""int"">0</Timestamp><DateUtc dt:dt=""string"">2016-11-17T21:22:23Z</DateUtc></StartTime><FrequencyChanges><FrequencyChange><Frequency dt:dt=""r8"">2597685</Frequency><Timestamp dt:dt=""r8"">463224278783</Timestamp><Current dt:dt=""r8"">0</Current><DateUtc dt:dt=""string"">2016-11-17T21:22:23Z</DateUtc></FrequencyChange></FrequencyChanges></Clock>\n"	Obs_Study2_gamecontroller-187-1	1	3342	2	15680	1	10699	6	9756	60.001	1.1.0.225	1	-631661013	toolRight	posRight	Professional	2.0.10.356	2.0.10.356	11/17/16	11/17/16 21:22	15:22:23	2.0.10.252	1	ToolRight			WITproc	TaskList	1	2	1	6	5	2				WIT_1	0	0	1680736	1000	no	experimentalBlockWIT	WITBlockList	2	1	2	27					3					0	-1	1767434	0	2	6			1						blackFace3.bmp	1	16	1765234	1000	1200	3		3		mask.bmp	1	0	1766634	301	No							1	0	1766234	200	black	TrialProcWIT	3	0	1	1766935	499	TOO SLOW	TrialListWIT										tool4.bmp	tool	0	6	0	0	1766434	200		0	0		4				1	1	27						Obs_Study2_gamecontroller	186	1	"<?xml version=""1.0""?>\n<Clock xmlns:dt=""urn:schemas-microsoft-com:datatypes""><Description dt:dt=""string"">E-Prime Primary Realtime Clock</Description><StartTime><Timestamp dt:dt=""int"">0</Timestamp><DateUtc dt:dt=""string"">2016-11-17T21:22:23Z</DateUtc></StartTime><FrequencyChanges><FrequencyChange><Frequency dt:dt=""r8"">2597685</Frequency><Timestamp dt:dt=""r8"">463224278783</Timestamp><Current dt:dt=""r8"">0</Current><DateUtc dt:dt=""string"">2016-11-17T21:22:23Z</DateUtc></FrequencyChange></FrequencyChanges></Clock>\n"	Obs_Study2_gamecontroller-187-1	1	3342	2	15680	1	10699	6	9756	60.001	1.1.0.225	1	-631661013	toolRight	posRight	Professional	2.0.10.356	2.0.10.356	11/17/16	11/17/16 21:22	15:22:23	2.0.10.252	1	ToolRight			WITproc	TaskList	1	2	1	6	5	2				WIT_1	0	0	1680736	1000	no	experimentalBlockWIT	WITBlockList	2	1	2	28					4					0	-1	1770851	0	2	5			1						blackFace4.bmp	0	17	1768651	1000	1000	2		3		mask.bmp	0	0	1770051	301	No							1	0	1769651	200	black	TrialProcWIT	3	0	1	1770352	499	TOO SLOW	TrialListWIT										weapon4.bmp	weapon	0	5	0	0	1769851	200		0	0						2	1	28	4					Obs_Study2_gamecontroller	186	1	"<?xml version=""1.0""?>\n<Clock xmlns:dt=""urn:schemas-microsoft-com:datatypes""><Description dt:dt=""string"">E-Prime Primary Realtime Clock</Description><StartTime><Timestamp dt:dt=""int"">0</Timestamp><DateUtc dt:dt=""string"">2016-11-17T21:22:23Z</DateUtc></StartTime><FrequencyChanges><FrequencyChange><Frequency dt:dt=""r8"">2597685</Frequency><Timestamp dt:dt=""r8"">463224278783</Timestamp><Current dt:dt=""r8"">0</Current><DateUtc dt:dt=""string"">2016-11-17T21:22:23Z</DateUtc></FrequencyChange></FrequencyChanges></Clock>\n"	Obs_Study2_gamecontroller-187-1	1	3342	2	15680	1	10699	6	9756	60.001	1.1.0.225	1	-631661013	toolRight	posRight	Professional	2.0.10.356	2.0.10.356	11/17/16	11/17/16 21:22	15:22:23	2.0.10.252	1	ToolRight			WITproc	TaskList	1	2	1	6	5	2				WIT_1	0	0	1680736	1000	no	experimentalBlockWIT	WITBlockList	2	1	2	29										0	0	1774068	0	2	5			1						whiteFace7.bmp	0	17	1771868	1000	800	1		3		mask.bmp	0	1	1773269	299	No							0	0	1772868	200	white	TrialProcWIT	1	0	-1	1773568	500	+	TrialListWIT										weapon3.bmp	weapon	0	5	0	0	1773068	201	6	337	1773405						4	1	29	3	7				Obs_Study2_gamecontroller	186	1	"<?xml version=""1.0""?>\n<Clock xmlns:dt=""urn:schemas-microsoft-com:datatypes""><Description dt:dt=""string"">E-Prime Primary Realtime Clock</Description><StartTime><Timestamp dt:dt=""int"">0</Timestamp><DateUtc dt:dt=""string"">2016-11-17T21:22:23Z</DateUtc></StartTime><FrequencyChanges><FrequencyChange><Frequency dt:dt=""r8"">2597685</Frequency><Timestamp dt:dt=""r8"">463224278783</Timestamp><Current dt:dt=""r8"">0</Current><DateUtc dt:dt=""string"">2016-11-17T21:22:23Z</DateUtc></FrequencyChange></FrequencyChanges></Clock>\n"	Obs_Study2_gamecontroller-187-1	1	3342	2	15680	1	10699	6	9756	60.001	1.1.0.225	1	-631661013	toolRight	posRight	Professional	2.0.10.356	2.0.10.356	11/17/16	11/17/16 21:22	15:22:23	2.0.10.252	1	ToolRight			WITproc	TaskList	1	2	1	6	5	2				WIT_1	0	0	1680736	1000	no	experimentalBlockWIT	WITBlockList	2	1	2	30					2					0	0	1777084	0	2	6			1						blackFace2.bmp	1	16	1774884	1000	1000	2		3		mask.bmp	1	0	1776284	300	No							1	0	1775884	200	black	TrialProcWIT	2	0	0	1776584	500	+	TrialListWIT										tool3.bmp	tool	1	6	0	0	1776084	200	6	465	1776549		3				1	1	30						Obs_Study2_gamecontroller	186	1	"<?xml version=""1.0""?>\n<Clock xmlns:dt=""urn:schemas-microsoft-com:datatypes""><Description dt:dt=""string"">E-Prime Primary Realtime Clock</Description><StartTime><Timestamp dt:dt=""int"">0</Timestamp><DateUtc dt:dt=""string"">2016-11-17T21:22:23Z</DateUtc></StartTime><FrequencyChanges><FrequencyChange><Frequency dt:dt=""r8"">2597685</Frequency><Timestamp dt:dt=""r8"">463224278783</Timestamp><Current dt:dt=""r8"">0</Current><DateUtc dt:dt=""string"">2016-11-17T21:22:23Z</DateUtc></FrequencyChange></FrequencyChanges></Clock>\n"	Obs_Study2_gamecontroller-187-1	1	3342	2	15680	1	10699	6	9756	60.001	1.1.0.225	1	-631661013	toolRight	posRight	Professional	2.0.10.356	2.0.10.356	11/17/16	11/17/16 21:22	15:22:23	2.0.10.252	1	ToolRight			WITproc	TaskList	1	2	1	6	5	2				WIT_1	0	0	1680736	1000	no	experimentalBlockWIT	WITBlockList	2	1	2	31										0	0	1780301	0	2	5			1						whiteFace8.bmp	0	17	1778101	1000	800	1		3		mask.bmp	0	0	1779501	300	No							0	0	1779101	200	white	TrialProcWIT	2	0	0	1779801	500	+	TrialListWIT										weapon2.bmp	weapon	1	5	0	0	1779301	200	5	468	1779769						4	1	31	2	8				Obs_Study2_gamecontroller	186	1	"<?xml version=""1.0""?>\n<Clock xmlns:dt=""urn:schemas-microsoft-com:datatypes""><Description dt:dt=""string"">E-Prime Primary Realtime Clock</Description><StartTime><Timestamp dt:dt=""int"">0</Timestamp><DateUtc dt:dt=""string"">2016-11-17T21:22:23Z</DateUtc></StartTime><FrequencyChanges><FrequencyChange><Frequency dt:dt=""r8"">2597685</Frequency><Timestamp dt:dt=""r8"">463224278783</Timestamp><Current dt:dt=""r8"">0</Current><DateUtc dt:dt=""string"">2016-11-17T21:22:23Z</DateUtc></FrequencyChange></FrequencyChanges></Clock>\n"	Obs_Study2_gamecontroller-187-1	1	3342	2	15680	1	10699	6	9756	60.001	1.1.0.225	1	-631661013	toolRight	posRight	Professional	2.0.10.356	2.0.10.356	11/17/16	11/17/16 21:22	15:22:23	2.0.10.252	1	ToolRight			WITproc	TaskList	1	2	1	6	5	2				WIT_1	0	0	1680736	1000	no	experimentalBlockWIT	WITBlockList	2	1	2	32					8					0	0	1783317	0	2	5			1						blackFace8.bmp	0	17	1781118	999	1200	3		3		mask.bmp	0	1	1782518	299	No							1	-1	1782117	200	black	TrialProcWIT	2	0	-1	1782817	500	+	TrialListWIT										weapon1.bmp	weapon	1	5	0	0	1782317	201	5	488	1782805						2	1	32	1					Obs_Study2_gamecontroller	186	1	"<?xml version=""1.0""?>\n<Clock xmlns:dt=""urn:schemas-microsoft-com:datatypes""><Description dt:dt=""string"">E-Prime Primary Realtime Clock</Description><StartTime><Timestamp dt:dt=""int"">0</Timestamp><DateUtc dt:dt=""string"">2016-11-17T21:22:23Z</DateUtc></StartTime><FrequencyChanges><FrequencyChange><Frequency dt:dt=""r8"">2597685</Frequency><Timestamp dt:dt=""r8"">463224278783</Timestamp><Current dt:dt=""r8"">0</Current><DateUtc dt:dt=""string"">2016-11-17T21:22:23Z</DateUtc></FrequencyChange></FrequencyChanges></Clock>\n"	Obs_Study2_gamecontroller-187-1	1	3342	2	15680	1	10699	6	9756	60.001	1.1.0.225	1	-631661013	toolRight	posRight	Professional	2.0.10.356	2.0.10.356	11/17/16	11/17/16 21:22	15:22:23	2.0.10.252	1	ToolRight			WITproc	TaskList	1	2	1	6	5	2				WIT_1	0	0	1680736	1000	no	experimentalBlockWIT	WITBlockList	2	1	2	33										0	0	1786734	0	2	6			1						whiteFace1.bmp	0	17	1784534	1000	1000	2		3		mask.bmp	0	0	1785934	300	No							1	0	1785534	200	white	TrialProcWIT	2	0	0	1786234	500	+	TrialListWIT										tool2.bmp	tool	1	6	0	0	1785734	200	6	335	1786069		2				3	2	33		1				Obs_Study2_gamecontroller	186	1	"<?xml version=""1.0""?>\n<Clock xmlns:dt=""urn:schemas-microsoft-com:datatypes""><Description dt:dt=""string"">E-Prime Primary Realtime Clock</Description><StartTime><Timestamp dt:dt=""int"">0</Timestamp><DateUtc dt:dt=""string"">2016-11-17T21:22:23Z</DateUtc></StartTime><FrequencyChanges><FrequencyChange><Frequency dt:dt=""r8"">2597685</Frequency><Timestamp dt:dt=""r8"">463224278783</Timestamp><Current dt:dt=""r8"">0</Current><DateUtc dt:dt=""string"">2016-11-17T21:22:23Z</DateUtc></FrequencyChange></FrequencyChanges></Clock>\n"	Obs_Study2_gamecontroller-187-1	1	3342	2	15680	1	10699	6	9756	60.001	1.1.0.225	1	-631661013	toolRight	posRight	Professional	2.0.10.356	2.0.10.356	11/17/16	11/17/16 21:22	15:22:23	2.0.10.252	1	ToolRight			WITproc	TaskList	1	2	1	6	5	2				WIT_1	0	0	1680736	1000	no	experimentalBlockWIT	WITBlockList	2	1	2	34										0	0	1789951	0	2	5			1						whiteFace2.bmp	0	17	1787751	1000	800	1		3		mask.bmp	0	0	1789151	300	No							0	0	1788751	200	white	TrialProcWIT	1	0	0	1789451	500	+	TrialListWIT										weapon3.bmp	weapon	0	5	0	0	1788951	200	6	370	1789321						4	2	34	3	2				Obs_Study2_gamecontroller	186	1	"<?xml version=""1.0""?>\n<Clock xmlns:dt=""urn:schemas-microsoft-com:datatypes""><Description dt:dt=""string"">E-Prime Primary Realtime Clock</Description><StartTime><Timestamp dt:dt=""int"">0</Timestamp><DateUtc dt:dt=""string"">2016-11-17T21:22:23Z</DateUtc></StartTime><FrequencyChanges><FrequencyChange><Frequency dt:dt=""r8"">2597685</Frequency><Timestamp dt:dt=""r8"">463224278783</Timestamp><Current dt:dt=""r8"">0</Current><DateUtc dt:dt=""string"">2016-11-17T21:22:23Z</DateUtc></FrequencyChange></FrequencyChanges></Clock>\n"	Obs_Study2_gamecontroller-187-1	1	3342	2	15680	1	10699	6	9756	60.001	1.1.0.225	1	-631661013	toolRight	posRight	Professional	2.0.10.356	2.0.10.356	11/17/16	11/17/16 21:22	15:22:23	2.0.10.252	1	ToolRight			WITproc	TaskList	1	2	1	6	5	2				WIT_1	0	0	1680736	1000	no	experimentalBlockWIT	WITBlockList	2	1	2	35										0	-2	1792967	0	2	5			1						whiteFace3.bmp	1	16	1790767	1000	1200	3		3		mask.bmp	1	0	1792167	302	No							1	0	1791767	200	white	TrialProcWIT	3	0	2	1792469	498	TOO SLOW	TrialListWIT										weapon1.bmp	weapon	0	5	0	0	1791967	200		0	0						4	2	35	1	3				Obs_Study2_gamecontroller	186	1	"<?xml version=""1.0""?>\n<Clock xmlns:dt=""urn:schemas-microsoft-com:datatypes""><Description dt:dt=""string"">E-Prime Primary Realtime Clock</Description><StartTime><Timestamp dt:dt=""int"">0</Timestamp><DateUtc dt:dt=""string"">2016-11-17T21:22:23Z</DateUtc></StartTime><FrequencyChanges><FrequencyChange><Frequency dt:dt=""r8"">2597685</Frequency><Timestamp dt:dt=""r8"">463224278783</Timestamp><Current dt:dt=""r8"">0</Current><DateUtc dt:dt=""string"">2016-11-17T21:22:23Z</DateUtc></FrequencyChange></FrequencyChanges></Clock>\n"	Obs_Study2_gamecontroller-187-1	1	3342	2	15680	1	10699	6	9756	60.001	1.1.0.225	1	-631661013	toolRight	posRight	Professional	2.0.10.356	2.0.10.356	11/17/16	11/17/16 21:22	15:22:23	2.0.10.252	1	ToolRight			WITproc	TaskList	1	2	1	6	5	2				WIT_1	0	0	1680736	1000	no	experimentalBlockWIT	WITBlockList	2	1	2	36					1					0	-1	1796384	0	2	6			1						blackFace1.bmp	0	17	1794184	1000	1200	3		3		mask.bmp	0	0	1795584	301	No							0	0	1795184	200	black	TrialProcWIT	3	0	1	1795885	499	TOO SLOW	TrialListWIT										tool1.bmp	tool	0	6	0	0	1795384	200		0	0		1				1	2	36						Obs_Study2_gamecontroller	186	1	"<?xml version=""1.0""?>\n<Clock xmlns:dt=""urn:schemas-microsoft-com:datatypes""><Description dt:dt=""string"">E-Prime Primary Realtime Clock</Description><StartTime><Timestamp dt:dt=""int"">0</Timestamp><DateUtc dt:dt=""string"">2016-11-17T21:22:23Z</DateUtc></StartTime><FrequencyChanges><FrequencyChange><Frequency dt:dt=""r8"">2597685</Frequency><Timestamp dt:dt=""r8"">463224278783</Timestamp><Current dt:dt=""r8"">0</Current><DateUtc dt:dt=""string"">2016-11-17T21:22:23Z</DateUtc></FrequencyChange></FrequencyChanges></Clock>\n"	Obs_Study2_gamecontroller-187-1	1	3342	2	15680	1	10699	6	9756	60.001	1.1.0.225	1	-631661013	toolRight	posRight	Professional	2.0.10.356	2.0.10.356	11/17/16	11/17/16 21:22	15:22:23	2.0.10.252	1	ToolRight			WITproc	TaskList	1	2	1	6	5	2				WIT_1	0	0	1680736	1000	no	experimentalBlockWIT	WITBlockList	2	1	2	37										0	0	1799817	0	2	6			1						whiteFace4.bmp	0	17	1797601	1000	1000	2		3		mask.bmp	0	0	1799001	316	No							0	0	1798601	200	white	TrialProcWIT	3	0	16	1799317	500	TOO SLOW	TrialListWIT										tool3.bmp	tool	0	6	0	0	1798801	200		0	0		3				3	2	37		4				Obs_Study2_gamecontroller	186	1	"<?xml version=""1.0""?>\n<Clock xmlns:dt=""urn:schemas-microsoft-com:datatypes""><Description dt:dt=""string"">E-Prime Primary Realtime Clock</Description><StartTime><Timestamp dt:dt=""int"">0</Timestamp><DateUtc dt:dt=""string"">2016-11-17T21:22:23Z</DateUtc></StartTime><FrequencyChanges><FrequencyChange><Frequency dt:dt=""r8"">2597685</Frequency><Timestamp dt:dt=""r8"">463224278783</Timestamp><Current dt:dt=""r8"">0</Current><DateUtc dt:dt=""string"">2016-11-17T21:22:23Z</DateUtc></FrequencyChange></FrequencyChanges></Clock>\n"	Obs_Study2_gamecontroller-187-1	1	3342	2	15680	1	10699	6	9756	60.001	1.1.0.225	1	-631661013	toolRight	posRight	Professional	2.0.10.356	2.0.10.356	11/17/16	11/17/16 21:22	15:22:23	2.0.10.252	1	ToolRight			WITproc	TaskList	1	2	1	6	5	2				WIT_1	0	0	1680736	1000	no	experimentalBlockWIT	WITBlockList	2	1	2	38										0	0	1803034	0	2	6			1						whiteFace5.bmp	0	17	1800834	1000	800	1		3		mask.bmp	0	0	1802234	300	No							0	0	1801834	200	white	TrialProcWIT	2	0	0	1802534	500	+	TrialListWIT										tool4.bmp	tool	1	6	0	0	1802034	200	6	370	1802404		4				3	2	38		5				Obs_Study2_gamecontroller	186	1	"<?xml version=""1.0""?>\n<Clock xmlns:dt=""urn:schemas-microsoft-com:datatypes""><Description dt:dt=""string"">E-Prime Primary Realtime Clock</Description><StartTime><Timestamp dt:dt=""int"">0</Timestamp><DateUtc dt:dt=""string"">2016-11-17T21:22:23Z</DateUtc></StartTime><FrequencyChanges><FrequencyChange><Frequency dt:dt=""r8"">2597685</Frequency><Timestamp dt:dt=""r8"">463224278783</Timestamp><Current dt:dt=""r8"">0</Current><DateUtc dt:dt=""string"">2016-11-17T21:22:23Z</DateUtc></FrequencyChange></FrequencyChanges></Clock>\n"	Obs_Study2_gamecontroller-187-1	1	3342	2	15680	1	10699	6	9756	60.001	1.1.0.225	1	-631661013	toolRight	posRight	Professional	2.0.10.356	2.0.10.356	11/17/16	11/17/16 21:22	15:22:23	2.0.10.252	1	ToolRight			WITproc	TaskList	1	2	1	6	5	2				WIT_1	0	0	1680736	1000	no	experimentalBlockWIT	WITBlockList	2	1	2	39										0	0	1806050	0	2	6			1						whiteFace6.bmp	1	16	1803850	1000	1200	3		3		mask.bmp	1	0	1805250	300	No							1	0	1804850	200	white	TrialProcWIT	2	0	0	1805550	500	+	TrialListWIT										tool3.bmp	tool	1	6	0	0	1805050	200	6	470	1805520		3				3	2	39		6				Obs_Study2_gamecontroller	186	1	"<?xml version=""1.0""?>\n<Clock xmlns:dt=""urn:schemas-microsoft-com:datatypes""><Description dt:dt=""string"">E-Prime Primary Realtime Clock</Description><StartTime><Timestamp dt:dt=""int"">0</Timestamp><DateUtc dt:dt=""string"">2016-11-17T21:22:23Z</DateUtc></StartTime><FrequencyChanges><FrequencyChange><Frequency dt:dt=""r8"">2597685</Frequency><Timestamp dt:dt=""r8"">463224278783</Timestamp><Current dt:dt=""r8"">0</Current><DateUtc dt:dt=""string"">2016-11-17T21:22:23Z</DateUtc></FrequencyChange></FrequencyChanges></Clock>\n"	Obs_Study2_gamecontroller-187-1	1	3342	2	15680	1	10699	6	9756	60.001	1.1.0.225	1	-631661013	toolRight	posRight	Professional	2.0.10.356	2.0.10.356	11/17/16	11/17/16 21:22	15:22:23	2.0.10.252	1	ToolRight			WITproc	TaskList	1	2	1	6	5	2				WIT_1	0	0	1680736	1000	no	experimentalBlockWIT	WITBlockList	2	1	2	40										0	0	1809467	0	2	6			1						whiteFace7.bmp	0	17	1807267	1000	800	1		3		mask.bmp	0	0	1808667	300	No							1	0	1808267	200	white	TrialProcWIT	2	0	0	1808967	500	+	TrialListWIT										tool2.bmp	tool	1	6	0	0	1808467	200	6	349	1808816		2				3	2	40		7				Obs_Study2_gamecontroller	186	1	"<?xml version=""1.0""?>\n<Clock xmlns:dt=""urn:schemas-microsoft-com:datatypes""><Description dt:dt=""string"">E-Prime Primary Realtime Clock</Description><StartTime><Timestamp dt:dt=""int"">0</Timestamp><DateUtc dt:dt=""string"">2016-11-17T21:22:23Z</DateUtc></StartTime><FrequencyChanges><FrequencyChange><Frequency dt:dt=""r8"">2597685</Frequency><Timestamp dt:dt=""r8"">463224278783</Timestamp><Current dt:dt=""r8"">0</Current><DateUtc dt:dt=""string"">2016-11-17T21:22:23Z</DateUtc></FrequencyChange></FrequencyChanges></Clock>\n"	Obs_Study2_gamecontroller-187-1	1	3342	2	15680	1	10699	6	9756	60.001	1.1.0.225	1	-631661013	toolRight	posRight	Professional	2.0.10.356	2.0.10.356	11/17/16	11/17/16 21:22	15:22:23	2.0.10.252	1	ToolRight			WITproc	TaskList	1	2	1	6	5	2				WIT_1	0	0	1680736	1000	no	experimentalBlockWIT	WITBlockList	2	1	2	41					2					0	0	1812500	0	2	6			1						blackFace2.bmp	0	17	1810284	1000	1000	2		3		mask.bmp	1	1	1811685	315	No							0	0	1811284	200	black	TrialProcWIT	3	0	15	1812000	500	TOO SLOW	TrialListWIT										tool1.bmp	tool	0	6	0	0	1811484	201		0	0		1				1	2	41						Obs_Study2_gamecontroller	186	1	"<?xml version=""1.0""?>\n<Clock xmlns:dt=""urn:schemas-microsoft-com:datatypes""><Description dt:dt=""string"">E-Prime Primary Realtime Clock</Description><StartTime><Timestamp dt:dt=""int"">0</Timestamp><DateUtc dt:dt=""string"">2016-11-17T21:22:23Z</DateUtc></StartTime><FrequencyChanges><FrequencyChange><Frequency dt:dt=""r8"">2597685</Frequency><Timestamp dt:dt=""r8"">463224278783</Timestamp><Current dt:dt=""r8"">0</Current><DateUtc dt:dt=""string"">2016-11-17T21:22:23Z</DateUtc></FrequencyChange></FrequencyChanges></Clock>\n"	Obs_Study2_gamecontroller-187-1	1	3342	2	15680	1	10699	6	9756	60.001	1.1.0.225	1	-631661013	toolRight	posRight	Professional	2.0.10.356	2.0.10.356	11/17/16	11/17/16 21:22	15:22:23	2.0.10.252	1	ToolRight			WITproc	TaskList	1	2	1	6	5	2				WIT_1	0	0	1680736	1000	no	experimentalBlockWIT	WITBlockList	2	1	2	42					8					0	0	1815734	0	2	5			1						blackFace8.bmp	0	17	1813517	1000	1000	2		3		mask.bmp	0	17	1814934	300	No							1	0	1814517	200	black	TrialProcWIT	3	0	0	1815234	500	TOO SLOW	TrialListWIT										weapon2.bmp	weapon	0	5	0	0	1814717	217		0	0						2	2	42	2					Obs_Study2_gamecontroller	186	1	"<?xml version=""1.0""?>\n<Clock xmlns:dt=""urn:schemas-microsoft-com:datatypes""><Description dt:dt=""string"">E-Prime Primary Realtime Clock</Description><StartTime><Timestamp dt:dt=""int"">0</Timestamp><DateUtc dt:dt=""string"">2016-11-17T21:22:23Z</DateUtc></StartTime><FrequencyChanges><FrequencyChange><Frequency dt:dt=""r8"">2597685</Frequency><Timestamp dt:dt=""r8"">463224278783</Timestamp><Current dt:dt=""r8"">0</Current><DateUtc dt:dt=""string"">2016-11-17T21:22:23Z</DateUtc></FrequencyChange></FrequencyChanges></Clock>\n"	Obs_Study2_gamecontroller-187-1	1	3342	2	15680	1	10699	6	9756	60.001	1.1.0.225	1	-631661013	toolRight	posRight	Professional	2.0.10.356	2.0.10.356	11/17/16	11/17/16 21:22	15:22:23	2.0.10.252	1	ToolRight			WITproc	TaskList	1	2	1	6	5	2				WIT_1	0	0	1680736	1000	no	experimentalBlockWIT	WITBlockList	2	1	2	43					6					0	0	1818950	0	2	5			1						blackFace6.bmp	1	16	1816750	1000	1200	3		3		mask.bmp	1	1	1818151	299	No							1	0	1817750	200	black	TrialProcWIT	2	0	-1	1818450	500	+	TrialListWIT										weapon4.bmp	weapon	1	5	0	0	1817950	201	5	374	1818324						2	2	43	4					Obs_Study2_gamecontroller	186	1	"<?xml version=""1.0""?>\n<Clock xmlns:dt=""urn:schemas-microsoft-com:datatypes""><Description dt:dt=""string"">E-Prime Primary Realtime Clock</Description><StartTime><Timestamp dt:dt=""int"">0</Timestamp><DateUtc dt:dt=""string"">2016-11-17T21:22:23Z</DateUtc></StartTime><FrequencyChanges><FrequencyChange><Frequency dt:dt=""r8"">2597685</Frequency><Timestamp dt:dt=""r8"">463224278783</Timestamp><Current dt:dt=""r8"">0</Current><DateUtc dt:dt=""string"">2016-11-17T21:22:23Z</DateUtc></FrequencyChange></FrequencyChanges></Clock>\n"	Obs_Study2_gamecontroller-187-1	1	3342	2	15680	1	10699	6	9756	60.001	1.1.0.225	1	-631661013	toolRight	posRight	Professional	2.0.10.356	2.0.10.356	11/17/16	11/17/16 21:22	15:22:23	2.0.10.252	1	ToolRight			WITproc	TaskList	1	2	1	6	5	2				WIT_1	0	0	1680736	1000	no	experimentalBlockWIT	WITBlockList	2	1	2	44										0	0	1822383	0	2	6			1						whiteFace8.bmp	0	17	1820167	1000	800	1		3		mask.bmp	1	16	1821583	300	No							0	0	1821167	200	white	TrialProcWIT	2	0	0	1821883	500	+	TrialListWIT										tool4.bmp	tool	1	6	0	0	1821367	216	6	353	1821720		4				3	2	44		8				Obs_Study2_gamecontroller	186	1	"<?xml version=""1.0""?>\n<Clock xmlns:dt=""urn:schemas-microsoft-com:datatypes""><Description dt:dt=""string"">E-Prime Primary Realtime Clock</Description><StartTime><Timestamp dt:dt=""int"">0</Timestamp><DateUtc dt:dt=""string"">2016-11-17T21:22:23Z</DateUtc></StartTime><FrequencyChanges><FrequencyChange><Frequency dt:dt=""r8"">2597685</Frequency><Timestamp dt:dt=""r8"">463224278783</Timestamp><Current dt:dt=""r8"">0</Current><DateUtc dt:dt=""string"">2016-11-17T21:22:23Z</DateUtc></FrequencyChange></FrequencyChanges></Clock>\n"	Obs_Study2_gamecontroller-187-1	1	3342	2	15680	1	10699	6	9756	60.001	1.1.0.225	1	-631661013	toolRight	posRight	Professional	2.0.10.356	2.0.10.356	11/17/16	11/17/16 21:22	15:22:23	2.0.10.252	1	ToolRight			WITproc	TaskList	1	2	1	6	5	2				WIT_1	0	0	1680736	1000	no	experimentalBlockWIT	WITBlockList	2	1	2	45					4					0	0	1825400	0	2	5			1						blackFace4.bmp	1	17	1823200	1000	800	1		3		mask.bmp	0	0	1824600	300	No							1	0	1824200	200	black	TrialProcWIT	2	0	0	1824900	500	+	TrialListWIT										weapon1.bmp	weapon	1	5	0	0	1824400	200	5	452	1824852						2	2	45	1					Obs_Study2_gamecontroller	186	1	"<?xml version=""1.0""?>\n<Clock xmlns:dt=""urn:schemas-microsoft-com:datatypes""><Description dt:dt=""string"">E-Prime Primary Realtime Clock</Description><StartTime><Timestamp dt:dt=""int"">0</Timestamp><DateUtc dt:dt=""string"">2016-11-17T21:22:23Z</DateUtc></StartTime><FrequencyChanges><FrequencyChange><Frequency dt:dt=""r8"">2597685</Frequency><Timestamp dt:dt=""r8"">463224278783</Timestamp><Current dt:dt=""r8"">0</Current><DateUtc dt:dt=""string"">2016-11-17T21:22:23Z</DateUtc></FrequencyChange></FrequencyChanges></Clock>\n"	Obs_Study2_gamecontroller-187-1	1	3342	2	15680	1	10699	6	9756	60.001	1.1.0.225	1	-631661013	toolRight	posRight	Professional	2.0.10.356	2.0.10.356	11/17/16	11/17/16 21:22	15:22:23	2.0.10.252	1	ToolRight			WITproc	TaskList	1	2	1	6	5	2				WIT_1	0	0	1680736	1000	no	experimentalBlockWIT	WITBlockList	2	1	2	46										0	0	1828433	0	2	5			1						whiteFace1.bmp	0	17	1826217	1000	1000	2		3		mask.bmp	0	0	1827617	316	No							0	0	1827217	200	white	TrialProcWIT	3	0	16	1827933	500	TOO SLOW	TrialListWIT										weapon2.bmp	weapon	0	5	0	0	1827417	200		0	0						4	2	46	2	1				Obs_Study2_gamecontroller	186	1	"<?xml version=""1.0""?>\n<Clock xmlns:dt=""urn:schemas-microsoft-com:datatypes""><Description dt:dt=""string"">E-Prime Primary Realtime Clock</Description><StartTime><Timestamp dt:dt=""int"">0</Timestamp><DateUtc dt:dt=""string"">2016-11-17T21:22:23Z</DateUtc></StartTime><FrequencyChanges><FrequencyChange><Frequency dt:dt=""r8"">2597685</Frequency><Timestamp dt:dt=""r8"">463224278783</Timestamp><Current dt:dt=""r8"">0</Current><DateUtc dt:dt=""string"">2016-11-17T21:22:23Z</DateUtc></FrequencyChange></FrequencyChanges></Clock>\n"	Obs_Study2_gamecontroller-187-1	1	3342	2	15680	1	10699	6	9756	60.001	1.1.0.225	1	-631661013	toolRight	posRight	Professional	2.0.10.356	2.0.10.356	11/17/16	11/17/16 21:22	15:22:23	2.0.10.252	1	ToolRight			WITproc	TaskList	1	2	1	6	5	2				WIT_1	0	0	1680736	1000	no	experimentalBlockWIT	WITBlockList	2	1	2	47					5					0	-1	1831650	0	2	6			1						blackFace5.bmp	0	17	1829450	1000	1200	3		3		mask.bmp	0	0	1830850	301	No							0	0	1830450	200	black	TrialProcWIT	3	0	1	1831151	499	TOO SLOW	TrialListWIT										tool2.bmp	tool	0	6	0	0	1830650	200		0	0		2				1	2	47						Obs_Study2_gamecontroller	186	1	"<?xml version=""1.0""?>\n<Clock xmlns:dt=""urn:schemas-microsoft-com:datatypes""><Description dt:dt=""string"">E-Prime Primary Realtime Clock</Description><StartTime><Timestamp dt:dt=""int"">0</Timestamp><DateUtc dt:dt=""string"">2016-11-17T21:22:23Z</DateUtc></StartTime><FrequencyChanges><FrequencyChange><Frequency dt:dt=""r8"">2597685</Frequency><Timestamp dt:dt=""r8"">463224278783</Timestamp><Current dt:dt=""r8"">0</Current><DateUtc dt:dt=""string"">2016-11-17T21:22:23Z</DateUtc></FrequencyChange></FrequencyChanges></Clock>\n"	Obs_Study2_gamecontroller-187-1	1	3342	2	15680	1	10699	6	9756	60.001	1.1.0.225	1	-631661013	toolRight	posRight	Professional	2.0.10.356	2.0.10.356	11/17/16	11/17/16 21:22	15:22:23	2.0.10.252	1	ToolRight			WITproc	TaskList	1	2	1	6	5	2				WIT_1	0	0	1680736	1000	no	experimentalBlockWIT	WITBlockList	2	1	2	48					3					0	8	1847283	0	2	6			1						blackFace3.bmp	0	17	1832867	1000	800	1		3		mask.bmp	0	0	1834267	300	No							0	0	1833867	200	black	TrialProcWIT	2	0	0	1834567	500	+	TrialListWIT										tool3.bmp	tool	1	6	0	0	1834067	200	6	485	1834552		3				1	2	48						Obs_Study2_gamecontroller	186	1	"<?xml version=""1.0""?>\n<Clock xmlns:dt=""urn:schemas-microsoft-com:datatypes""><Description dt:dt=""string"">E-Prime Primary Realtime Clock</Description><StartTime><Timestamp dt:dt=""int"">0</Timestamp><DateUtc dt:dt=""string"">2016-11-17T21:22:23Z</DateUtc></StartTime><FrequencyChanges><FrequencyChange><Frequency dt:dt=""r8"">2597685</Frequency><Timestamp dt:dt=""r8"">463224278783</Timestamp><Current dt:dt=""r8"">0</Current><DateUtc dt:dt=""string"">2016-11-17T21:22:23Z</DateUtc></FrequencyChange></FrequencyChanges></Clock>\n"	Obs_Study2_gamecontroller-187-1	1	3342	2	15680	1	10699	6	9756	60.001	1.1.0.225	1	-631661013	toolRight	posRight	Professional	2.0.10.356	2.0.10.356	11/17/16	11/17/16 21:22	15:22:23	2.0.10.252	1	ToolRight			WITproc	TaskList	1	2	1	6	5	2				WIT_1	0	0	1680736	1000	no	experimentalBlockWIT	WITBlockList	2	1	2	49					7					0	0	1850300	0	2	6			1						blackFace7.bmp	0	17	1848100	1000	1200	3		3		mask.bmp	1	0	1849500	300	No							0	0	1849100	200	black	TrialProcWIT	2	0	0	1849800	500	+	TrialListWIT										tool4.bmp	tool	1	6	0	0	1849300	200	6	435	1849735		4				1	2	49						Obs_Study2_gamecontroller	186	1	"<?xml version=""1.0""?>\n<Clock xmlns:dt=""urn:schemas-microsoft-com:datatypes""><Description dt:dt=""string"">E-Prime Primary Realtime Clock</Description><StartTime><Timestamp dt:dt=""int"">0</Timestamp><DateUtc dt:dt=""string"">2016-11-17T21:22:23Z</DateUtc></StartTime><FrequencyChanges><FrequencyChange><Frequency dt:dt=""r8"">2597685</Frequency><Timestamp dt:dt=""r8"">463224278783</Timestamp><Current dt:dt=""r8"">0</Current><DateUtc dt:dt=""string"">2016-11-17T21:22:23Z</DateUtc></FrequencyChange></FrequencyChanges></Clock>\n"	Obs_Study2_gamecontroller-187-1	1	3342	2	15680	1	10699	6	9756	60.001	1.1.0.225	1	-631661013	toolRight	posRight	Professional	2.0.10.356	2.0.10.356	11/17/16	11/17/16 21:22	15:22:23	2.0.10.252	1	ToolRight			WITproc	TaskList	1	2	1	6	5	2				WIT_1	0	0	1680736	1000	no	experimentalBlockWIT	WITBlockList	2	1	2	50					8					0	-1	1853716	0	2	6			1						blackFace8.bmp	1	16	1851516	1000	1000	2		3		mask.bmp	1	0	1852916	301	No							1	0	1852516	200	black	TrialProcWIT	3	0	1	1853217	499	TOO SLOW	TrialListWIT										tool1.bmp	tool	0	6	0	0	1852716	200		0	0		1				1	2	50						Obs_Study2_gamecontroller	186	1	"<?xml version=""1.0""?>\n<Clock xmlns:dt=""urn:schemas-microsoft-com:datatypes""><Description dt:dt=""string"">E-Prime Primary Realtime Clock</Description><StartTime><Timestamp dt:dt=""int"">0</Timestamp><DateUtc dt:dt=""string"">2016-11-17T21:22:23Z</DateUtc></StartTime><FrequencyChanges><FrequencyChange><Frequency dt:dt=""r8"">2597685</Frequency><Timestamp dt:dt=""r8"">463224278783</Timestamp><Current dt:dt=""r8"">0</Current><DateUtc dt:dt=""string"">2016-11-17T21:22:23Z</DateUtc></FrequencyChange></FrequencyChanges></Clock>\n"	Obs_Study2_gamecontroller-187-1	1	3342	2	15680	1	10699	6	9756	60.001	1.1.0.225	1	-631661013	toolRight	posRight	Professional	2.0.10.356	2.0.10.356	11/17/16	11/17/16 21:22	15:22:23	2.0.10.252	1	ToolRight			WITproc	TaskList	1	2	1	6	5	2				WIT_1	0	0	1680736	1000	no	experimentalBlockWIT	WITBlockList	2	1	2	51					5					0	0	1856933	0	2	5			1						blackFace5.bmp	0	17	1854733	1000	1200	3		3		mask.bmp	1	0	1856133	300	No							0	0	1855733	200	black	TrialProcWIT	1	0	0	1856433	500	+	TrialListWIT										weapon4.bmp	weapon	0	5	0	0	1855933	200	6	326	1856259						2	2	51	4					Obs_Study2_gamecontroller	186	1	"<?xml version=""1.0""?>\n<Clock xmlns:dt=""urn:schemas-microsoft-com:datatypes""><Description dt:dt=""string"">E-Prime Primary Realtime Clock</Description><StartTime><Timestamp dt:dt=""int"">0</Timestamp><DateUtc dt:dt=""string"">2016-11-17T21:22:23Z</DateUtc></StartTime><FrequencyChanges><FrequencyChange><Frequency dt:dt=""r8"">2597685</Frequency><Timestamp dt:dt=""r8"">463224278783</Timestamp><Current dt:dt=""r8"">0</Current><DateUtc dt:dt=""string"">2016-11-17T21:22:23Z</DateUtc></FrequencyChange></FrequencyChanges></Clock>\n"	Obs_Study2_gamecontroller-187-1	1	3342	2	15680	1	10699	6	9756	60.001	1.1.0.225	1	-631661013	toolRight	posRight	Professional	2.0.10.356	2.0.10.356	11/17/16	11/17/16 21:22	15:22:23	2.0.10.252	1	ToolRight			WITproc	TaskList	1	2	1	6	5	2				WIT_1	0	0	1680736	1000	no	experimentalBlockWIT	WITBlockList	2	1	2	52										0	0	1860349	0	2	5			1						whiteFace2.bmp	0	17	1858150	1000	1000	2		3		mask.bmp	0	1	1859550	299	No							0	0	1859150	199	white	TrialProcWIT	1	0	-1	1859849	500	+	TrialListWIT										weapon3.bmp	weapon	0	5	0	-1	1859349	201	6	474	1859823						4	2	52	3	2				Obs_Study2_gamecontroller	186	1	"<?xml version=""1.0""?>\n<Clock xmlns:dt=""urn:schemas-microsoft-com:datatypes""><Description dt:dt=""string"">E-Prime Primary Realtime Clock</Description><StartTime><Timestamp dt:dt=""int"">0</Timestamp><DateUtc dt:dt=""string"">2016-11-17T21:22:23Z</DateUtc></StartTime><FrequencyChanges><FrequencyChange><Frequency dt:dt=""r8"">2597685</Frequency><Timestamp dt:dt=""r8"">463224278783</Timestamp><Current dt:dt=""r8"">0</Current><DateUtc dt:dt=""string"">2016-11-17T21:22:23Z</DateUtc></FrequencyChange></FrequencyChanges></Clock>\n"	Obs_Study2_gamecontroller-187-1	1	3342	2	15680	1	10699	6	9756	60.001	1.1.0.225	1	-631661013	toolRight	posRight	Professional	2.0.10.356	2.0.10.356	11/17/16	11/17/16 21:22	15:22:23	2.0.10.252	1	ToolRight			WITproc	TaskList	1	2	1	6	5	2				WIT_1	0	0	1680736	1000	no	experimentalBlockWIT	WITBlockList	2	1	2	53					3					0	0	1863583	0	2	6			1						blackFace3.bmp	0	17	1861366	1000	800	1		3		mask.bmp	0	0	1862766	317	No							1	0	1862366	200	black	TrialProcWIT	3	0	17	1863083	500	TOO SLOW	TrialListWIT										tool4.bmp	tool	0	6	0	0	1862566	200		0	0		4				1	2	53						Obs_Study2_gamecontroller	186	1	"<?xml version=""1.0""?>\n<Clock xmlns:dt=""urn:schemas-microsoft-com:datatypes""><Description dt:dt=""string"">E-Prime Primary Realtime Clock</Description><StartTime><Timestamp dt:dt=""int"">0</Timestamp><DateUtc dt:dt=""string"">2016-11-17T21:22:23Z</DateUtc></StartTime><FrequencyChanges><FrequencyChange><Frequency dt:dt=""r8"">2597685</Frequency><Timestamp dt:dt=""r8"">463224278783</Timestamp><Current dt:dt=""r8"">0</Current><DateUtc dt:dt=""string"">2016-11-17T21:22:23Z</DateUtc></FrequencyChange></FrequencyChanges></Clock>\n"	Obs_Study2_gamecontroller-187-1	1	3342	2	15680	1	10699	6	9756	60.001	1.1.0.225	1	-631661013	toolRight	posRight	Professional	2.0.10.356	2.0.10.356	11/17/16	11/17/16 21:22	15:22:23	2.0.10.252	1	ToolRight			WITproc	TaskList	1	2	1	6	5	2				WIT_1	0	0	1680736	1000	no	experimentalBlockWIT	WITBlockList	2	1	2	54					1					0	0	1866599	0	2	5			1						blackFace1.bmp	1	16	1864399	1000	800	1		3		mask.bmp	1	0	1865799	300	No							1	0	1865399	200	black	TrialProcWIT	2	0	0	1866099	500	+	TrialListWIT										weapon4.bmp	weapon	1	5	0	0	1865599	200	5	496	1866095						2	2	54	4					Obs_Study2_gamecontroller	186	1	"<?xml version=""1.0""?>\n<Clock xmlns:dt=""urn:schemas-microsoft-com:datatypes""><Description dt:dt=""string"">E-Prime Primary Realtime Clock</Description><StartTime><Timestamp dt:dt=""int"">0</Timestamp><DateUtc dt:dt=""string"">2016-11-17T21:22:23Z</DateUtc></StartTime><FrequencyChanges><FrequencyChange><Frequency dt:dt=""r8"">2597685</Frequency><Timestamp dt:dt=""r8"">463224278783</Timestamp><Current dt:dt=""r8"">0</Current><DateUtc dt:dt=""string"">2016-11-17T21:22:23Z</DateUtc></FrequencyChange></FrequencyChanges></Clock>\n"	Obs_Study2_gamecontroller-187-1	1	3342	2	15680	1	10699	6	9756	60.001	1.1.0.225	1	-631661013	toolRight	posRight	Professional	2.0.10.356	2.0.10.356	11/17/16	11/17/16 21:22	15:22:23	2.0.10.252	1	ToolRight			WITproc	TaskList	1	2	1	6	5	2				WIT_1	0	0	1680736	1000	no	experimentalBlockWIT	WITBlockList	2	1	2	55					6					0	0	1869616	0	2	5			1						blackFace6.bmp	0	17	1867416	1000	1200	3		3		mask.bmp	0	0	1868816	300	No							1	0	1868416	200	black	TrialProcWIT	2	0	0	1869116	500	+	TrialListWIT										weapon3.bmp	weapon	1	5	0	0	1868616	200	5	411	1869027						2	2	55	3					Obs_Study2_gamecontroller	186	1	"<?xml version=""1.0""?>\n<Clock xmlns:dt=""urn:schemas-microsoft-com:datatypes""><Description dt:dt=""string"">E-Prime Primary Realtime Clock</Description><StartTime><Timestamp dt:dt=""int"">0</Timestamp><DateUtc dt:dt=""string"">2016-11-17T21:22:23Z</DateUtc></StartTime><FrequencyChanges><FrequencyChange><Frequency dt:dt=""r8"">2597685</Frequency><Timestamp dt:dt=""r8"">463224278783</Timestamp><Current dt:dt=""r8"">0</Current><DateUtc dt:dt=""string"">2016-11-17T21:22:23Z</DateUtc></FrequencyChange></FrequencyChanges></Clock>\n"	Obs_Study2_gamecontroller-187-1	1	3342	2	15680	1	10699	6	9756	60.001	1.1.0.225	1	-631661013	toolRight	posRight	Professional	2.0.10.356	2.0.10.356	11/17/16	11/17/16 21:22	15:22:23	2.0.10.252	1	ToolRight			WITproc	TaskList	1	2	1	6	5	2				WIT_1	0	0	1680736	1000	no	experimentalBlockWIT	WITBlockList	2	1	2	56					4					0	0	1873033	0	2	6			1						blackFace4.bmp	0	17	1870833	1000	1000	2		3		mask.bmp	0	0	1872233	300	No							0	0	1871833	200	black	TrialProcWIT	1	0	0	1872533	500	+	TrialListWIT										tool2.bmp	tool	0	6	0	0	1872033	200	5	338	1872371		2				1	2	56						Obs_Study2_gamecontroller	186	1	"<?xml version=""1.0""?>\n<Clock xmlns:dt=""urn:schemas-microsoft-com:datatypes""><Description dt:dt=""string"">E-Prime Primary Realtime Clock</Description><StartTime><Timestamp dt:dt=""int"">0</Timestamp><DateUtc dt:dt=""string"">2016-11-17T21:22:23Z</DateUtc></StartTime><FrequencyChanges><FrequencyChange><Frequency dt:dt=""r8"">2597685</Frequency><Timestamp dt:dt=""r8"">463224278783</Timestamp><Current dt:dt=""r8"">0</Current><DateUtc dt:dt=""string"">2016-11-17T21:22:23Z</DateUtc></FrequencyChange></FrequencyChanges></Clock>\n"	Obs_Study2_gamecontroller-187-1	1	3342	2	15680	1	10699	6	9756	60.001	1.1.0.225	1	-631661013	toolRight	posRight	Professional	2.0.10.356	2.0.10.356	11/17/16	11/17/16 21:22	15:22:23	2.0.10.252	1	ToolRight			WITproc	TaskList	1	2	1	6	5	2				WIT_1	0	0	1680736	1000	no	experimentalBlockWIT	WITBlockList	2	1	2	57										0	0	1876249	0	2	5			1						whiteFace3.bmp	1	16	1874049	1000	1000	2		3		mask.bmp	1	0	1875449	300	No							1	0	1875049	200	white	TrialProcWIT	1	0	0	1875749	500	+	TrialListWIT										weapon1.bmp	weapon	0	5	0	0	1875249	200	6	354	1875603						4	2	57	1	3				Obs_Study2_gamecontroller	186	1	"<?xml version=""1.0""?>\n<Clock xmlns:dt=""urn:schemas-microsoft-com:datatypes""><Description dt:dt=""string"">E-Prime Primary Realtime Clock</Description><StartTime><Timestamp dt:dt=""int"">0</Timestamp><DateUtc dt:dt=""string"">2016-11-17T21:22:23Z</DateUtc></StartTime><FrequencyChanges><FrequencyChange><Frequency dt:dt=""r8"">2597685</Frequency><Timestamp dt:dt=""r8"">463224278783</Timestamp><Current dt:dt=""r8"">0</Current><DateUtc dt:dt=""string"">2016-11-17T21:22:23Z</DateUtc></FrequencyChange></FrequencyChanges></Clock>\n"	Obs_Study2_gamecontroller-187-1	1	3342	2	15680	1	10699	6	9756	60.001	1.1.0.225	1	-631661013	toolRight	posRight	Professional	2.0.10.356	2.0.10.356	11/17/16	11/17/16 21:22	15:22:23	2.0.10.252	1	ToolRight			WITproc	TaskList	1	2	1	6	5	2				WIT_1	0	0	1680736	1000	no	experimentalBlockWIT	WITBlockList	2	1	2	58										0	-1	1879466	0	2	5			1						whiteFace4.bmp	0	17	1877266	1000	800	1		3		mask.bmp	0	0	1878666	301	No							0	0	1878266	200	white	TrialProcWIT	3	0	1	1878967	499	TOO SLOW	TrialListWIT										weapon2.bmp	weapon	0	5	0	0	1878466	200		0	0						4	2	58	2	4				Obs_Study2_gamecontroller	186	1	"<?xml version=""1.0""?>\n<Clock xmlns:dt=""urn:schemas-microsoft-com:datatypes""><Description dt:dt=""string"">E-Prime Primary Realtime Clock</Description><StartTime><Timestamp dt:dt=""int"">0</Timestamp><DateUtc dt:dt=""string"">2016-11-17T21:22:23Z</DateUtc></StartTime><FrequencyChanges><FrequencyChange><Frequency dt:dt=""r8"">2597685</Frequency><Timestamp dt:dt=""r8"">463224278783</Timestamp><Current dt:dt=""r8"">0</Current><DateUtc dt:dt=""string"">2016-11-17T21:22:23Z</DateUtc></FrequencyChange></FrequencyChanges></Clock>\n"	Obs_Study2_gamecontroller-187-1	1	3342	2	15680	1	10699	6	9756	60.001	1.1.0.225	1	-631661013	toolRight	posRight	Professional	2.0.10.356	2.0.10.356	11/17/16	11/17/16 21:22	15:22:23	2.0.10.252	1	ToolRight			WITproc	TaskList	1	2	1	6	5	2				WIT_1	0	0	1680736	1000	no	experimentalBlockWIT	WITBlockList	2	1	2	59					2					0	0	1882482	0	2	5			1						blackFace2.bmp	1	16	1880282	1000	1200	3		3		mask.bmp	1	0	1881682	300	No							1	0	1881282	200	black	TrialProcWIT	2	0	0	1881982	500	+	TrialListWIT										weapon1.bmp	weapon	1	5	0	0	1881482	200	5	481	1881963						2	2	59	1					Obs_Study2_gamecontroller	186	1	"<?xml version=""1.0""?>\n<Clock xmlns:dt=""urn:schemas-microsoft-com:datatypes""><Description dt:dt=""string"">E-Prime Primary Realtime Clock</Description><StartTime><Timestamp dt:dt=""int"">0</Timestamp><DateUtc dt:dt=""string"">2016-11-17T21:22:23Z</DateUtc></StartTime><FrequencyChanges><FrequencyChange><Frequency dt:dt=""r8"">2597685</Frequency><Timestamp dt:dt=""r8"">463224278783</Timestamp><Current dt:dt=""r8"">0</Current><DateUtc dt:dt=""string"">2016-11-17T21:22:23Z</DateUtc></FrequencyChange></FrequencyChanges></Clock>\n"	Obs_Study2_gamecontroller-187-1	1	3342	2	15680	1	10699	6	9756	60.001	1.1.0.225	1	-631661013	toolRight	posRight	Professional	2.0.10.356	2.0.10.356	11/17/16	11/17/16 21:22	15:22:23	2.0.10.252	1	ToolRight			WITproc	TaskList	1	2	1	6	5	2				WIT_1	0	0	1680736	1000	no	experimentalBlockWIT	WITBlockList	2	1	2	60										0	0	1885899	0	2	5			1						whiteFace5.bmp	0	17	1883699	1000	800	1		3		mask.bmp	0	0	1885099	300	No							1	0	1884699	200	white	TrialProcWIT	1	0	0	1885399	500	+	TrialListWIT										weapon4.bmp	weapon	0	5	0	0	1884899	200	6	328	1885227						4	2	60	4	5				Obs_Study2_gamecontroller	186	1	"<?xml version=""1.0""?>\n<Clock xmlns:dt=""urn:schemas-microsoft-com:datatypes""><Description dt:dt=""string"">E-Prime Primary Realtime Clock</Description><StartTime><Timestamp dt:dt=""int"">0</Timestamp><DateUtc dt:dt=""string"">2016-11-17T21:22:23Z</DateUtc></StartTime><FrequencyChanges><FrequencyChange><Frequency dt:dt=""r8"">2597685</Frequency><Timestamp dt:dt=""r8"">463224278783</Timestamp><Current dt:dt=""r8"">0</Current><DateUtc dt:dt=""string"">2016-11-17T21:22:23Z</DateUtc></FrequencyChange></FrequencyChanges></Clock>\n"	Obs_Study2_gamecontroller-187-1	1	3342	2	15680	1	10699	6	9756	60.001	1.1.0.225	1	-631661013	toolRight	posRight	Professional	2.0.10.356	2.0.10.356	11/17/16	11/17/16 21:22	15:22:23	2.0.10.252	1	ToolRight			WITproc	TaskList	1	2	1	6	5	2				WIT_1	0	0	1680736	1000	no	experimentalBlockWIT	WITBlockList	2	1	2	61					7					0	0	1888916	0	2	5			1						blackFace7.bmp	0	17	1886716	1000	1200	3		3		mask.bmp	1	0	1888116	300	No							0	0	1887716	200	black	TrialProcWIT	2	0	0	1888416	500	+	TrialListWIT										weapon2.bmp	weapon	1	5	0	0	1887916	200	5	447	1888363						2	2	61	2					Obs_Study2_gamecontroller	186	1	"<?xml version=""1.0""?>\n<Clock xmlns:dt=""urn:schemas-microsoft-com:datatypes""><Description dt:dt=""string"">E-Prime Primary Realtime Clock</Description><StartTime><Timestamp dt:dt=""int"">0</Timestamp><DateUtc dt:dt=""string"">2016-11-17T21:22:23Z</DateUtc></StartTime><FrequencyChanges><FrequencyChange><Frequency dt:dt=""r8"">2597685</Frequency><Timestamp dt:dt=""r8"">463224278783</Timestamp><Current dt:dt=""r8"">0</Current><DateUtc dt:dt=""string"">2016-11-17T21:22:23Z</DateUtc></FrequencyChange></FrequencyChanges></Clock>\n"	Obs_Study2_gamecontroller-187-1	1	3342	2	15680	1	10699	6	9756	60.001	1.1.0.225	1	-631661013	toolRight	posRight	Professional	2.0.10.356	2.0.10.356	11/17/16	11/17/16 21:22	15:22:23	2.0.10.252	1	ToolRight			WITproc	TaskList	1	2	1	6	5	2				WIT_1	0	0	1680736	1000	no	experimentalBlockWIT	WITBlockList	2	1	2	62										0	0	1892332	0	2	5			1						whiteFace6.bmp	1	16	1890132	1000	1000	2		3		mask.bmp	1	0	1891532	300	No							1	0	1891132	200	white	TrialProcWIT	1	0	0	1891832	500	+	TrialListWIT										weapon3.bmp	weapon	0	5	0	0	1891332	200	6	415	1891747						4	2	62	3	6				Obs_Study2_gamecontroller	186	1	"<?xml version=""1.0""?>\n<Clock xmlns:dt=""urn:schemas-microsoft-com:datatypes""><Description dt:dt=""string"">E-Prime Primary Realtime Clock</Description><StartTime><Timestamp dt:dt=""int"">0</Timestamp><DateUtc dt:dt=""string"">2016-11-17T21:22:23Z</DateUtc></StartTime><FrequencyChanges><FrequencyChange><Frequency dt:dt=""r8"">2597685</Frequency><Timestamp dt:dt=""r8"">463224278783</Timestamp><Current dt:dt=""r8"">0</Current><DateUtc dt:dt=""string"">2016-11-17T21:22:23Z</DateUtc></FrequencyChange></FrequencyChanges></Clock>\n"	Obs_Study2_gamecontroller-187-1	1	3342	2	15680	1	10699	6	9756	60.001	1.1.0.225	1	-631661013	toolRight	posRight	Professional	2.0.10.356	2.0.10.356	11/17/16	11/17/16 21:22	15:22:23	2.0.10.252	1	ToolRight			WITproc	TaskList	1	2	1	6	5	2				WIT_1	0	0	1680736	1000	no	experimentalBlockWIT	WITBlockList	2	1	2	63										0	0	1895566	0	2	6			1						whiteFace7.bmp	0	17	1893349	1000	800	1		3		mask.bmp	0	0	1894749	317	No							0	0	1894349	200	white	TrialProcWIT	3	0	17	1895066	500	TOO SLOW	TrialListWIT										tool1.bmp	tool	0	6	0	0	1894549	200		0	0		1				3	2	63		7				Obs_Study2_gamecontroller	186	1	"<?xml version=""1.0""?>\n<Clock xmlns:dt=""urn:schemas-microsoft-com:datatypes""><Description dt:dt=""string"">E-Prime Primary Realtime Clock</Description><StartTime><Timestamp dt:dt=""int"">0</Timestamp><DateUtc dt:dt=""string"">2016-11-17T21:22:23Z</DateUtc></StartTime><FrequencyChanges><FrequencyChange><Frequency dt:dt=""r8"">2597685</Frequency><Timestamp dt:dt=""r8"">463224278783</Timestamp><Current dt:dt=""r8"">0</Current><DateUtc dt:dt=""string"">2016-11-17T21:22:23Z</DateUtc></FrequencyChange></FrequencyChanges></Clock>\n"	Obs_Study2_gamecontroller-187-1	1	3342	2	15680	1	10699	6	9756	60.001	1.1.0.225	1	-631661013	toolRight	posRight	Professional	2.0.10.356	2.0.10.356	11/17/16	11/17/16 21:22	15:22:23	2.0.10.252	1	ToolRight			WITproc	TaskList	1	2	1	6	5	2				WIT_1	0	0	1680736	1000	no	experimentalBlockWIT	WITBlockList	2	1	2	64										0	-2	1898582	0	2	6			1						whiteFace8.bmp	1	16	1896382	1000	1000	2		3		mask.bmp	0	0	1897782	302	No							1	0	1897382	200	white	TrialProcWIT	3	0	2	1898084	498	TOO SLOW	TrialListWIT										tool3.bmp	tool	0	6	0	0	1897582	200		0	0		3				3	2	64		8				Obs_Study2_gamecontroller	186	1	"<?xml version=""1.0""?>\n<Clock xmlns:dt=""urn:schemas-microsoft-com:datatypes""><Description dt:dt=""string"">E-Prime Primary Realtime Clock</Description><StartTime><Timestamp dt:dt=""int"">0</Timestamp><DateUtc dt:dt=""string"">2016-11-17T21:22:23Z</DateUtc></StartTime><FrequencyChanges><FrequencyChange><Frequency dt:dt=""r8"">2597685</Frequency><Timestamp dt:dt=""r8"">463224278783</Timestamp><Current dt:dt=""r8"">0</Current><DateUtc dt:dt=""string"">2016-11-17T21:22:23Z</DateUtc></FrequencyChange></FrequencyChanges></Clock>\n"	Obs_Study2_gamecontroller-187-1	1	3342	2	15680	1	10699	6	9756	60.001	1.1.0.225	1	-631661013	toolRight	posRight	Professional	2.0.10.356	2.0.10.356	11/17/16	11/17/16 21:22	15:22:23	2.0.10.252	1	ToolRight			WITproc	TaskList	1	2	1	6	5	2				WIT_1	0	0	1680736	1000	no	experimentalBlockWIT	WITBlockList	2	1	2	65					3					0	0	1901799	0	2	6			1						blackFace3.bmp	0	17	1899599	1000	1200	3		3		mask.bmp	0	0	1900999	300	No							0	0	1900599	200	black	TrialProcWIT	2	0	0	1901299	500	+	TrialListWIT										tool2.bmp	tool	1	6	0	0	1900799	200	6	468	1901267		2				1	3	65						Obs_Study2_gamecontroller	186	1	"<?xml version=""1.0""?>\n<Clock xmlns:dt=""urn:schemas-microsoft-com:datatypes""><Description dt:dt=""string"">E-Prime Primary Realtime Clock</Description><StartTime><Timestamp dt:dt=""int"">0</Timestamp><DateUtc dt:dt=""string"">2016-11-17T21:22:23Z</DateUtc></StartTime><FrequencyChanges><FrequencyChange><Frequency dt:dt=""r8"">2597685</Frequency><Timestamp dt:dt=""r8"">463224278783</Timestamp><Current dt:dt=""r8"">0</Current><DateUtc dt:dt=""string"">2016-11-17T21:22:23Z</DateUtc></FrequencyChange></FrequencyChanges></Clock>\n"	Obs_Study2_gamecontroller-187-1	1	3342	2	15680	1	10699	6	9756	60.001	1.1.0.225	1	-631661013	toolRight	posRight	Professional	2.0.10.356	2.0.10.356	11/17/16	11/17/16 21:22	15:22:23	2.0.10.252	1	ToolRight			WITproc	TaskList	1	2	1	6	5	2				WIT_1	0	0	1680736	1000	no	experimentalBlockWIT	WITBlockList	2	1	2	66					5					0	-1	1905215	0	2	5			1						blackFace5.bmp	1	16	1903015	1000	800	1		3		mask.bmp	1	0	1904415	301	No							1	0	1904015	200	black	TrialProcWIT	3	0	1	1904716	499	TOO SLOW	TrialListWIT										weapon2.bmp	weapon	0	5	0	0	1904215	200		0	0						2	3	66	2					Obs_Study2_gamecontroller	186	1	"<?xml version=""1.0""?>\n<Clock xmlns:dt=""urn:schemas-microsoft-com:datatypes""><Description dt:dt=""string"">E-Prime Primary Realtime Clock</Description><StartTime><Timestamp dt:dt=""int"">0</Timestamp><DateUtc dt:dt=""string"">2016-11-17T21:22:23Z</DateUtc></StartTime><FrequencyChanges><FrequencyChange><Frequency dt:dt=""r8"">2597685</Frequency><Timestamp dt:dt=""r8"">463224278783</Timestamp><Current dt:dt=""r8"">0</Current><DateUtc dt:dt=""string"">2016-11-17T21:22:23Z</DateUtc></FrequencyChange></FrequencyChanges></Clock>\n"	Obs_Study2_gamecontroller-187-1	1	3342	2	15680	1	10699	6	9756	60.001	1.1.0.225	1	-631661013	toolRight	posRight	Professional	2.0.10.356	2.0.10.356	11/17/16	11/17/16 21:22	15:22:23	2.0.10.252	1	ToolRight			WITproc	TaskList	1	2	1	6	5	2				WIT_1	0	0	1680736	1000	no	experimentalBlockWIT	WITBlockList	2	1	2	67					6					0	0	1908232	0	2	5			1						blackFace6.bmp	0	17	1906032	1000	1000	2		3		mask.bmp	0	0	1907432	300	No							0	0	1907032	200	black	TrialProcWIT	2	0	0	1907732	500	+	TrialListWIT										weapon3.bmp	weapon	1	5	0	0	1907232	200	5	466	1907698						2	3	67	3					Obs_Study2_gamecontroller	186	1	"<?xml version=""1.0""?>\n<Clock xmlns:dt=""urn:schemas-microsoft-com:datatypes""><Description dt:dt=""string"">E-Prime Primary Realtime Clock</Description><StartTime><Timestamp dt:dt=""int"">0</Timestamp><DateUtc dt:dt=""string"">2016-11-17T21:22:23Z</DateUtc></StartTime><FrequencyChanges><FrequencyChange><Frequency dt:dt=""r8"">2597685</Frequency><Timestamp dt:dt=""r8"">463224278783</Timestamp><Current dt:dt=""r8"">0</Current><DateUtc dt:dt=""string"">2016-11-17T21:22:23Z</DateUtc></FrequencyChange></FrequencyChanges></Clock>\n"	Obs_Study2_gamecontroller-187-1	1	3342	2	15680	1	10699	6	9756	60.001	1.1.0.225	1	-631661013	toolRight	posRight	Professional	2.0.10.356	2.0.10.356	11/17/16	11/17/16 21:22	15:22:23	2.0.10.252	1	ToolRight			WITproc	TaskList	1	2	1	6	5	2				WIT_1	0	0	1680736	1000	no	experimentalBlockWIT	WITBlockList	2	1	2	68										0	0	1911449	0	2	5			1						whiteFace1.bmp	0	17	1909249	1000	1200	3		3		mask.bmp	0	0	1910649	300	No							0	0	1910249	200	white	TrialProcWIT	1	0	0	1910949	500	+	TrialListWIT										weapon1.bmp	weapon	0	5	0	0	1910449	200	6	361	1910810						4	3	68	1	1				Obs_Study2_gamecontroller	186	1	"<?xml version=""1.0""?>\n<Clock xmlns:dt=""urn:schemas-microsoft-com:datatypes""><Description dt:dt=""string"">E-Prime Primary Realtime Clock</Description><StartTime><Timestamp dt:dt=""int"">0</Timestamp><DateUtc dt:dt=""string"">2016-11-17T21:22:23Z</DateUtc></StartTime><FrequencyChanges><FrequencyChange><Frequency dt:dt=""r8"">2597685</Frequency><Timestamp dt:dt=""r8"">463224278783</Timestamp><Current dt:dt=""r8"">0</Current><DateUtc dt:dt=""string"">2016-11-17T21:22:23Z</DateUtc></FrequencyChange></FrequencyChanges></Clock>\n"	Obs_Study2_gamecontroller-187-1	1	3342	2	15680	1	10699	6	9756	60.001	1.1.0.225	1	-631661013	toolRight	posRight	Professional	2.0.10.356	2.0.10.356	11/17/16	11/17/16 21:22	15:22:23	2.0.10.252	1	ToolRight			WITproc	TaskList	1	2	1	6	5	2				WIT_1	0	0	1680736	1000	no	experimentalBlockWIT	WITBlockList	2	1	2	69					4					0	-1	1914865	0	2	6			1						blackFace4.bmp	1	16	1912665	1000	1200	3		3		mask.bmp	1	0	1914065	301	No							1	0	1913665	200	black	TrialProcWIT	3	0	1	1914366	499	TOO SLOW	TrialListWIT										tool3.bmp	tool	0	6	0	0	1913865	200		0	0		3				1	3	69						